Time (s),Accel X (m/s^2),Accel Y (m/s^2),Accel Z (m/s^2)
4.499125,0.591515936279297,0.100418210506439,-4.07352350177765
4.499731060606061,0.632231268310547,0.045332761287689205,-3.7765410799026498
4.500337121212121,0.651391424560547,0.150713620662689,-3.88671197834015
4.500943181818182,0.627441229248047,0.205799069881439,-3.92503229084015
4.501549242424242,0.529245428466797,-0.0576530785560608,-3.9896978181839
4.502155303030303,0.596305975341797,-0.172614016056061,-4.135794009590151
4.502761363636364,0.41428449096679704,0.040542722225189204,-4.22680475177765
4.503367424242424,0.469369940185547,0.109998288631439,-3.87234186115265
4.503973484848485,0.637021307373047,0.12915844488143902,-3.7430108064651497
4.504579545454546,0.534035467529297,0.0477277808189392,-3.8986870759964
4.505185606060606,0.6633665222167969,0.117183347225189,-3.89150201740265
4.505791666666667,0.7232420104980469,0.172268796443939,-3.8843169588089
4.506397727272727,0.555590643310547,0.17945385503768901,-4.0040679353714
4.507003787878788,0.555590643310547,0.210589108943939,-4.08310357990265
4.507609848484849,0.419074530029297,0.0189875464439392,-3.6543950838089
4.508215909090909,0.5220603698730469,-0.0217277855873108,-3.8196514314651497
4.50882196969697,0.519665350341797,-0.016937746524810803,-4.1142388338089
4.509428030303031,0.361594061279297,0.21777416753768902,-3.4771636384963998
4.510034090909091,0.6058860534667969,0.23932934331893901,-3.71906061115265
4.510640151515152,0.46218488159179705,0.112393308162689,-3.82444147052765
4.511246212121212,0.311298651123047,0.165083737850189,-3.8555767244339
4.511852272727273,0.495715155029297,0.0501228003501892,-4.05915338459015
4.512458333333334,0.517270330810547,0.09323315191268919,-3.7501958650589
4.513064393939394,0.43344464721679704,0.09802319097518919,-4.00646295490265
4.513670454545455,0.672946600341797,0.107603269100189,-3.8555767244339
4.514276515151516,0.589120916748047,0.201009030818939,-3.6975054353714
4.514882575757576,0.45260480346679705,0.263279538631439,-3.99688287677765
4.515488636363637,0.7615623229980469,0.12915844488143902,-3.8507866853714
4.516094696969697,0.608281072998047,-0.131898684024811,-3.8938970369339
4.516700757575758,0.507690252685547,0.0812580542564392,-4.0663384431839
4.517306818181819,0.529245428466797,0.026172605037689197,-4.1525591463089
4.517912878787879,0.481345037841797,0.0860480933189392,-3.9465874666214
4.51851893939394,0.6633665222167969,0.0788630347251892,-3.87234186115265
4.519125,0.48374005737304704,0.107603269100189,-3.9226372713088997
4.519731060606061,0.378359197998047,0.270464597225189,-4.03520318927765
4.520337121212122,0.359199041748047,0.100418210506439,-4.08310357990265
4.520943181818182,0.610676092529297,0.227354245662689,-3.91545221271515
4.521549242424243,0.756772283935547,0.09562817144393919,-3.9729326814651498
4.522155303030304,0.589120916748047,0.344710202693939,-4.06873346271515
4.522761363636364,0.488530096435547,0.0501228003501892,-3.99209283771515
4.523367424242425,0.476554998779297,-0.124713625431061,-3.9657476228714
4.523973484848485,0.507690252685547,0.256094480037689,-4.14058404865265
4.524579545454546,0.47415997924804704,-0.00256762933731079,-3.95377252521515
4.525185606060607,0.713661932373047,0.0381477026939392,-3.86755182209015
4.525791666666667,0.6657615417480469,0.282439694881439,-3.7358257478714
4.526397727272728,0.378359197998047,0.29680981206893897,-3.9825127595901497
4.5270037878787885,0.48374005737304704,0.196218991756439,-4.1190288728714
4.527609848484849,0.593910955810547,0.186638913631439,-3.96814264240265
4.5282159090909095,0.608281072998047,0.0812580542564392,-3.86755182209015
4.52882196969697,0.48374005737304704,0.0620978980064392,-4.2411748689651505
4.5294280303030305,0.45499982299804703,0.0189875464439392,-3.9561675447463998
4.5300340909090915,0.476554998779297,0.160293698787689,-3.80049127521515
4.5306401515151515,0.574750799560547,0.186638913631439,-3.90587213459015
4.5312462121212125,0.5412205261230469,-0.045677980899810795,-3.6639751619339
4.5318522727272725,0.48374005737304704,-0.0576530785560608,-3.9753277009964
4.5324583333333335,0.6250462097167969,0.131553464412689,-3.8651568025589
4.533064393939394,0.529245428466797,0.105208249568939,-3.7454058259964
4.5336704545454545,0.787907537841797,-0.06962817621231081,-3.70469049396515
4.534276515151515,0.692106756591797,0.0141975073814392,-4.0280181306839
4.534882575757576,0.46218488159179705,0.0141975073814392,-4.0328081697464
4.535488636363636,0.620256170654297,0.0022224097251892097,-3.8124663728714
4.536094696969697,0.490925115966797,0.100418210506439,-3.87234186115265
4.536700757575758,0.428654608154297,-0.00017260980606079098,-3.8220464509964
4.537306818181818,0.390334295654297,-0.07920825433731081,-4.00167291584015
4.537912878787879,0.46218488159179705,-0.0600480980873108,-3.32627740802765
4.538518939393939,0.550800604248047,0.0189875464439392,-4.0807085603713995
4.539125,0.34243390502929705,-0.112738527774811,-3.81486139240265
4.539731060606061,0.5627757019042969,-0.148663820743561,-3.8364165681838998
4.540337121212121,0.6418113464355469,0.102813230037689,-4.296260318183901
4.540943181818182,0.407099432373047,0.112393308162689,-3.6112847322464
4.541549242424242,0.577145819091797,-0.043282961368560795,-4.348950747871401
4.542155303030303,0.790302557373047,0.109998288631439,-4.0854985994339
4.542761363636364,0.567565740966797,0.210589108943939,-3.6208648103714
4.543367424242424,0.33285382690429705,0.186638913631439,-3.7334307283401498
4.543973484848485,0.548405584716797,0.124368405818939,-3.9034771150589
4.544579545454546,0.5819358581542969,0.0644929175376892,-3.86755182209015
4.545185606060606,0.409494451904297,0.0836530737876892,-3.91545221271515
4.545791666666667,0.47176495971679705,0.0597028784751892,-3.8938970369339
4.546397727272727,0.44302472534179704,0.0525178198814392,-3.92024225177765
4.547003787878788,0.428654608154297,-0.00017260980606079098,-4.0136480134964
4.547609848484849,0.689711737060547,0.0022224097251892097,-3.9370073884964
4.548215909090909,0.498110174560547,0.0788630347251892,-3.94419244709015
4.54882196969697,0.6609715026855469,0.09562817144393919,-3.98730279865265
4.549428030303031,0.574750799560547,0.165083737850189,-3.99209283771515
4.550034090909091,0.31369367065429704,0.13873852300643902,-3.72864068927765
4.550640151515152,0.526850408935547,0.0333576636314392,-4.0328081697464
4.551246212121212,0.371174139404297,0.0597028784751892,-4.09747369709015
4.551852272727273,0.579540838623047,-0.10555346918106101,-3.73822076740265
4.552458333333334,0.538825506591797,0.210589108943939,-4.183694400215151
4.553064393939394,0.486135076904297,0.028567624568939198,-4.128608950996401
4.553670454545455,0.466974920654297,-0.186984133243561,-3.8962920564651498
4.554276515151516,0.740007147216797,-0.00496264886856079,-3.9753277009964
4.554882575757576,0.6442063659667969,0.165083737850189,-3.8986870759964
4.555488636363637,0.426259588623047,0.205799069881439,-3.87234186115265
4.556094696969697,0.586725897216797,0.14352856206893902,-3.7885161775589
4.556700757575758,0.46457990112304703,0.165083737850189,-3.90108209552765
4.557306818181819,0.457394842529297,-0.08639331293106081,-4.0280181306839
4.557912878787879,0.553195623779297,0.0501228003501892,-4.08789361896515
4.55851893939394,0.579540838623047,0.102813230037689,-3.7765410799026498
4.559125,0.49332013549804704,0.00940746831893921,-3.8196514314651497
4.559731060606061,0.359199041748047,0.0165925269126892,-4.01604303302765
4.560337121212122,0.519665350341797,0.0908381323814392,-3.7454058259964
4.560943181818182,0.5460105651855469,0.00701244878768921,-3.87234186115265
4.561549242424243,0.526850408935547,0.030962644100189198,-3.91066217365265
4.562155303030304,0.5843308776855469,0.00461742925643921,-3.76217096271515
4.562761363636364,0.5460105651855469,-0.158243898868561,-3.72864068927765
4.563367424242425,0.617861151123047,0.0884431128501892,-4.07831354084015
4.563973484848485,0.5819358581542969,0.0333576636314392,-3.9417974275589
4.564579545454546,0.5843308776855469,0.105208249568939,-4.03520318927765
4.565185606060607,0.41188947143554705,0.042937741756439204,-4.2076445955276505
4.565791666666667,0.368779119873047,0.0501228003501892,-3.8412066072464
4.566397727272728,0.637021307373047,0.31836498785018896,-3.8747368806839
4.567003787878789,0.557985662841797,-0.06723315668106081,-3.79570123615265
4.567609848484849,0.498110174560547,0.160293698787689,-3.38854791584015
4.56821590909091,0.5627757019042969,-0.00735766839981079,-3.83402154865265
4.56882196969697,0.653786444091797,0.0165925269126892,-4.29865533771515
4.569428030303031,0.613071112060547,0.172268796443939,-3.6448150056839
4.5700340909090915,0.859758123779297,-0.0337028832435608,-3.8076763338089
4.570640151515152,0.807067694091797,0.18424389410018902,-4.116633853340151
4.5712462121212125,0.375964178466797,0.126763425350189,-3.91545221271515
4.571852272727273,0.634626287841797,-0.00256762933731079,-4.0615484041214
4.5724583333333335,0.548405584716797,0.0836530737876892,-3.77175104084015
4.5730643939393945,0.651391424560547,0.150713620662689,-3.8891069978714
4.5736704545454545,0.593910955810547,-0.009752687931060789,-4.00167291584015
4.5742765151515155,0.349618963623047,0.0644929175376892,-3.8795269197463997
4.574882575757576,0.639416326904297,0.150713620662689,-3.9729326814651498
4.5754886363636365,0.510085272216797,0.21777416753768902,-4.0807085603713995
4.576094696969697,0.610676092529297,0.0812580542564392,-4.0423882478714
4.5767007575757575,0.610676092529297,0.0022224097251892097,-4.0902886384964
4.577306818181818,0.529245428466797,-0.14626880121231098,-4.06873346271515
4.577912878787879,0.41428449096679704,0.045332761287689205,-4.0040679353714
4.578518939393939,0.368779119873047,0.09562817144393919,-3.9465874666214
4.579125,0.44302472534179704,-0.0384929223060608,-4.0423882478714
4.579731060606061,0.380754217529297,0.040542722225189204,-4.169324283027651
4.580337121212121,0.457394842529297,-0.0600480980873108,-3.9130571931838998
4.580943181818182,0.40470441284179703,0.0213825659751892,-4.08789361896515
4.581549242424242,0.555590643310547,0.0357526831626892,-3.8891069978714
4.582155303030303,0.5436155456542969,0.102813230037689,-3.94419244709015
4.582761363636364,0.620256170654297,0.20340405035018902,-4.04478326740265
4.583367424242424,0.534035467529297,-0.0576530785560608,-3.7837261384964
4.583973484848485,0.478950018310547,0.09802319097518919,-4.17411432209015
4.584579545454545,0.526850408935547,0.263279538631439,-4.11184381427765
4.585185606060606,0.426259588623047,0.30878490972518896,-3.8172564119339
4.585791666666667,0.529245428466797,0.0860480933189392,-3.8268364900589
4.586397727272727,0.5843308776855469,-0.06723315668106081,-4.0567583650589
4.587003787878788,0.457394842529297,0.0381477026939392,-4.19327447834015
4.587609848484849,0.531640447998047,-0.00256762933731079,-3.7837261384964
4.588215909090909,0.435839666748047,-0.0217277855873108,-3.82444147052765
4.58882196969697,0.421469549560547,0.0620978980064392,-4.0232280916214
4.58942803030303,0.7040818542480469,0.141133542537689,-3.8891069978714
4.590034090909091,0.5220603698730469,0.222564206600189,-3.9801177400589
4.590640151515152,0.598700994873047,0.21298412847518902,-4.0519683259964
4.591246212121212,0.560380682373047,-0.0528630394935608,-3.9561675447463998
4.591852272727273,0.47415997924804704,0.028567624568939198,-4.1477691072464005
4.592458333333334,0.6010960144042969,0.155503659725189,-3.9849077791214
4.593064393939394,0.548405584716797,0.270464597225189,-3.95856256427765
4.593670454545455,0.593910955810547,0.303994870662689,-4.03520318927765
4.594276515151515,0.359199041748047,0.045332761287689205,-3.8938970369339
4.594882575757576,0.46218488159179705,0.09562817144393919,-4.1573491853714
4.595488636363637,0.529245428466797,0.0381477026939392,-3.8747368806839
4.596094696969697,0.46218488159179705,-0.0337028832435608,-3.7741460603714
4.596700757575758,0.620256170654297,0.12915844488143902,-4.1717193025589
4.597306818181819,0.637021307373047,0.09562817144393919,-4.0567583650589
4.597912878787879,0.5005051940917971,-0.019332766056060803,-4.0998687166214
4.59851893939394,0.639416326904297,-0.0408879418373108,-3.9801177400589
4.599125,0.488530096435547,0.0644929175376892,-3.44123834552765
4.599731060606061,0.476554998779297,0.105208249568939,-4.03520318927765
4.600337121212121,0.677736639404297,0.13394848394393902,-4.14058404865265
4.600943181818182,0.519665350341797,0.0022224097251892097,-4.0232280916214
4.601549242424242,0.5244553894042969,0.126763425350189,-3.87713190021515
4.602155303030303,0.39272931518554705,0.232144284725189,-3.8076763338089
4.602761363636365,0.653786444091797,0.150713620662689,-3.94419244709015
4.603367424242424,0.6034910339355469,0.105208249568939,-3.9849077791214
4.603973484848486,0.36398908081054704,-0.0121477074623108,-3.9370073884964
4.604579545454545,0.5843308776855469,-0.10315844964981101,-3.88192193927765
4.605185606060607,0.557985662841797,0.241724362850189,-4.0663384431839
4.605791666666668,0.359199041748047,0.256094480037689,-3.82444147052765
4.606397727272728,0.347223944091797,-0.242069582462311,-3.8507866853714
4.607003787878789,0.41188947143554705,0.00701244878768921,-3.94898248615265
4.607609848484849,0.5843308776855469,-0.00256762933731079,-3.9513775056839
4.60821590909091,0.387939276123047,0.09323315191268919,-3.9034771150589
4.6088219696969706,0.340038885498047,0.141133542537689,-3.85797174396515
4.609428030303031,0.361594061279297,0.109998288631439,-3.91066217365265
4.6100340909090916,0.299323553466797,0.234539304256439,-3.7933062166213998
4.6106401515151525,0.181967596435547,0.126763425350189,-3.8076763338089
4.6112462121212126,0.251423162841797,0.24411938238143902,-3.6639751619339
4.6118522727272735,0.488530096435547,0.026172605037689197,-3.92982232990265
4.6124583333333335,0.28255841674804705,0.0525178198814392,-4.0208330720901495
4.6130643939393945,0.23944806518554698,0.0573078589439392,-3.8220464509964
4.613670454545455,0.31369367065429704,0.0764680151939392,-3.87713190021515
4.6142765151515155,0.251423162841797,-0.17500903558731098,-4.01125299396515
4.614882575757576,0.270583319091797,-0.163033937931061,-4.0663384431839
4.6154886363636365,0.110117010498047,-0.00017260980606079098,-3.9034771150589
4.616094696969697,0.10532697143554699,0.126763425350189,-3.8795269197463997
4.616700757575758,0.165202459716797,0.19861401128768902,-3.76217096271515
4.617306818181818,0.217892889404297,0.0237775855064392,-3.7980962556839
4.617912878787879,0.27297833862304705,0.34710522222518897,-3.79570123615265
4.618518939393939,0.0167112487792969,-0.0408879418373108,-3.8747368806839
4.619125,0.13406720581054699,-0.07202319574356081,-4.0902886384964
4.619731060606061,0.24902814331054698,0.09562817144393919,-4.11184381427765
4.620337121212121,-0.033584161376953095,0.0501228003501892,-4.0759185213089
4.620943181818182,0.191547674560547,0.205799069881439,-3.98730279865265
4.621549242424242,0.368779119873047,0.236934323787689,-3.7885161775589
4.622155303030303,0.340038885498047,0.169873776912689,-3.90108209552765
4.622761363636364,0.18915265502929698,0.0908381323814392,-3.8459966463089
4.623367424242424,0.07419171752929689,0.0788630347251892,-4.1190288728714
4.623973484848485,0.232263006591797,0.00701244878768921,-4.135794009590151
4.624579545454545,0.112512030029297,0.0644929175376892,-3.7980962556839
4.625185606060606,0.10293195190429699,0.09323315191268919,-3.91545221271515
4.625791666666667,0.270583319091797,0.09802319097518919,-3.8364165681838998
4.626397727272727,0.38554425659179703,0.0501228003501892,-3.89150201740265
4.627003787878788,0.555590643310547,0.09323315191268919,-3.95377252521515
4.627609848484848,0.47415997924804704,0.165083737850189,-3.68553033771515
4.628215909090909,0.268188299560547,-0.0528630394935608,-3.7549859041214
4.62882196969697,0.35201398315429705,-0.016937746524810803,-4.28428522052765
4.62942803030303,0.35201398315429705,0.0836530737876892,-3.3622027009964
4.630034090909091,0.39512433471679703,0.0477277808189392,-3.63762994709015
4.630640151515152,0.366384100341797,0.21777416753768902,-4.02562311115265
4.631246212121212,0.43344464721679704,0.181848874568939,-3.66158014240265
4.631852272727273,0.318483709716797,0.0692829566001892,-3.9992778963088997
4.632458333333333,0.44302472534179704,0.112393308162689,-3.9394024080276497
4.633064393939394,0.5412205261230469,0.20819408941268902,-4.00167291584015
4.633670454545455,0.407099432373047,0.155503659725189,-3.95856256427765
4.634276515151515,0.44302472534179704,0.294414792537689,-4.01125299396515
4.634882575757576,0.416679510498047,-0.0600480980873108,-3.8172564119339
4.635488636363636,0.330458807373047,0.112393308162689,-3.9034771150589
4.636094696969697,0.44541974487304703,0.332735105037689,-3.90108209552765
4.636700757575758,0.548405584716797,0.215379148006439,-4.0711284822464
4.637306818181818,0.43344464721679704,-0.0337028832435608,-4.0232280916214
4.637912878787879,0.375964178466797,-0.191774172306061,-4.00167291584015
4.638518939393939,0.371174139404297,0.109998288631439,-4.07352350177765
4.639125,0.534035467529297,0.0189875464439392,-3.7741460603714
4.639731060606061,0.730427069091797,0.29680981206893897,-3.84360162677765
4.640337121212121,0.5627757019042969,0.232144284725189,-3.84360162677765
4.640943181818182,0.49332013549804704,-0.009752687931060789,-3.7741460603714
4.641549242424242,0.5627757019042969,0.210589108943939,-3.7645659822464
4.642155303030303,0.39272931518554705,-0.0384929223060608,-3.7837261384964
4.642761363636364,0.316088690185547,-0.00256762933731079,-4.03041315021515
4.643367424242424,0.560380682373047,0.119578366756439,-4.109448794746401
4.643973484848486,0.46218488159179705,-0.009752687931060789,-3.9417974275589
4.644579545454545,0.40470441284179703,0.112393308162689,-3.9992778963088997
4.645185606060606,0.375964178466797,0.19861401128768902,-3.8364165681838998
4.645791666666668,0.48374005737304704,0.172268796443939,-3.8124663728714
4.646397727272728,0.648996405029297,0.13394848394393902,-3.9417974275589
4.647003787878789,0.35440900268554704,0.136343503475189,-3.9226372713088997
4.647609848484848,0.5436155456542969,-0.048073000431060796,-3.99209283771515
4.64821590909091,0.47415997924804704,0.0788630347251892,-4.01125299396515
4.648821969696971,0.519665350341797,0.0740729956626892,-3.9753277009964
4.649428030303031,0.407099432373047,-0.0241228051185608,-3.94419244709015
4.650034090909092,0.428654608154297,0.042937741756439204,-4.0998687166214
4.6506401515151525,0.41428449096679704,0.0764680151939392,-4.03999322834015
4.651246212121213,0.42386456909179704,0.18903393316268902,-3.86755182209015
4.6518522727272735,0.31369367065429704,0.0333576636314392,-4.0519683259964
4.652458333333334,0.6034910339355469,-0.110343508243561,-3.99209283771515
4.6530643939393945,0.613071112060547,0.0525178198814392,-3.9082671541214
4.6536704545454555,0.517270330810547,0.224959226131439,-3.94419244709015
4.6542765151515155,0.706476873779297,0.0165925269126892,-3.7837261384964
4.6548825757575765,0.45260480346679705,-0.00017260980606079098,-3.84839166584015
4.6554886363636365,0.591515936279297,0.284834714412689,-3.6232598299026497
4.6560946969696975,0.40470441284179703,0.0692829566001892,-3.8555767244339
4.656700757575758,0.531640447998047,0.0333576636314392,-3.86755182209015
4.6573068181818185,0.675341619873047,0.19382397222518902,-3.88192193927765
4.657912878787879,0.6010960144042969,-0.0408879418373108,-3.74780084552765
4.6585189393939395,0.6849216979980469,0.028567624568939198,-3.99688287677765
4.659125,0.6034910339355469,0.24411938238143902,-3.81486139240265
4.659731060606061,0.6250462097167969,0.0860480933189392,-3.91545221271515
4.660337121212121,0.7256370300292969,0.0357526831626892,-3.8268364900589
4.660943181818182,0.656181463623047,0.23932934331893901,-3.5035088533401497
4.661549242424242,0.5460105651855469,0.167478757381439,-4.150164126777651
4.662155303030303,0.48374005737304704,0.0812580542564392,-3.91545221271515
4.662761363636364,0.7639573425292969,0.241724362850189,-3.99688287677765
4.663367424242424,0.596305975341797,-0.0384929223060608,-3.99688287677765
4.663973484848485,0.426259588623047,0.29920483160018896,-4.0088579744339
4.664579545454545,0.6442063659667969,0.284834714412689,-4.00167291584015
4.665185606060606,0.5412205261230469,-0.00017260980606079098,-3.92503229084015
4.665791666666667,0.45260480346679705,0.0692829566001892,-4.0663384431839
4.666397727272727,0.6034910339355469,-0.045677980899810795,-4.0615484041214
4.667003787878788,0.510085272216797,-0.0121477074623108,-4.08789361896515
4.667609848484848,0.49332013549804704,0.045332761287689205,-4.0136480134964
4.668215909090909,0.550800604248047,0.09802319097518919,-3.81486139240265
4.66882196969697,0.478950018310547,0.13873852300643902,-3.9705376619339
4.66942803030303,0.608281072998047,-0.07202319574356081,-3.8076763338089
4.670034090909091,0.450209783935547,0.0165925269126892,-3.95377252521515
4.670640151515152,0.579540838623047,0.181848874568939,-4.08310357990265
4.671246212121212,0.593910955810547,0.0477277808189392,-3.71427057209015
4.671852272727273,0.5627757019042969,0.253699460506439,-4.07831354084015
4.672458333333333,0.9842991394042969,0.136343503475189,-3.98730279865265
4.673064393939394,0.6058860534667969,-0.0552580590248108,-3.81007135334015
4.673670454545455,0.5436155456542969,0.107603269100189,-4.0208330720901495
4.674276515151515,0.447814764404297,0.21298412847518902,-3.87713190021515
4.674882575757576,0.5005051940917971,0.107603269100189,-4.1333989900589
4.675488636363636,0.567565740966797,-0.0360979027748108,-4.2411748689651505
4.676094696969697,0.215497869873047,0.0740729956626892,-4.269915103340151
4.676700757575758,0.478950018310547,0.0884431128501892,-3.9896978181839
4.677306818181818,0.6657615417480469,0.030962644100189198,-3.7070855134964
4.677912878787879,0.49332013549804704,0.0022224097251892097,-3.96814264240265
4.678518939393939,0.40470441284179703,-0.00017260980606079098,-4.01604303302765
4.679125,0.658576483154297,-0.009752687931060789,-3.9034771150589
4.679731060606061,0.577145819091797,0.165083737850189,-3.90108209552765
4.680337121212121,0.5412205261230469,0.102813230037689,-3.85797174396515
4.680943181818182,0.5651707214355469,-0.10315844964981101,-3.8747368806839
4.681549242424242,0.596305975341797,-0.0552580590248108,-3.9896978181839
4.682155303030303,0.596305975341797,0.0477277808189392,-4.25075494709015
4.682761363636364,0.459789862060547,0.421350827693939,-3.9465874666214
4.683367424242424,0.31369367065429704,-0.00256762933731079,-3.6687652009964
4.683973484848485,0.28495343627929703,-0.0648381371498108,-4.03999322834015
4.684579545454545,0.431049627685547,-0.0552580590248108,-3.93461236896515
4.685185606060606,0.775932440185547,-0.07202319574356081,-3.85797174396515
4.685791666666668,0.713661932373047,0.107603269100189,-3.9322173494339
4.686397727272727,0.41428449096679704,-0.0145427269935608,-4.06394342365265
4.687003787878789,0.5819358581542969,-0.0217277855873108,-4.0543633455276495
4.687609848484848,0.548405584716797,-0.0528630394935608,-4.296260318183901
4.68821590909091,0.675341619873047,0.0501228003501892,-3.6448150056839
4.688821969696971,0.46457990112304703,0.114788327693939,-3.95377252521515
4.689428030303031,0.6849216979980469,0.251304440975189,-3.6783452791214
4.690034090909092,0.637021307373047,0.29680981206893897,-3.8986870759964
4.690640151515153,0.387939276123047,-0.0528630394935608,-4.423196353340151
4.691246212121213,0.6825266784667969,-0.122318605899811,-4.0902886384964
4.691852272727274,0.469369940185547,0.162688718318939,-3.8891069978714
4.692458333333334,0.421469549560547,-0.043282961368560795,-3.65200006427765
4.693064393939395,0.488530096435547,0.0860480933189392,-4.183694400215151
4.6936704545454555,0.498110174560547,0.124368405818939,-3.8220464509964
4.694276515151516,0.615466131591797,0.121973386287689,-3.70948053302765
4.6948825757575765,0.548405584716797,0.24890942144393902,-4.00167291584015
4.695488636363637,0.550800604248047,0.0022224097251892097,-4.03999322834015
4.6960946969696975,0.378359197998047,-0.0337028832435608,-3.9561675447463998
4.6967007575757584,0.517270330810547,-0.009752687931060789,-3.97772272052765
4.6973068181818185,0.6849216979980469,0.109998288631439,-3.7933062166213998
4.697912878787879,0.593910955810547,0.040542722225189204,-4.0423882478714
4.6985189393939395,0.438234686279297,0.21298412847518902,-3.9082671541214
4.699125,0.431049627685547,-0.00735766839981079,-4.0328081697464
4.699731060606061,0.5843308776855469,-0.117528566837311,-3.9825127595901497
4.700337121212121,0.490925115966797,0.150713620662689,-4.06394342365265
4.700943181818182,0.589120916748047,-0.122318605899811,-4.0208330720901495
4.701549242424242,0.613071112060547,0.107603269100189,-3.75738092365265
4.702155303030303,0.596305975341797,0.119578366756439,-3.8555767244339
4.702761363636364,0.6418113464355469,0.0549128394126892,-4.06873346271515
4.703367424242424,0.6442063659667969,0.0788630347251892,-4.150164126777651
4.703973484848485,0.40470441284179703,0.09562817144393919,-3.92503229084015
4.704579545454545,0.5005051940917971,0.342315183162689,-4.1573491853714
4.705185606060606,0.308903631591797,0.107603269100189,-4.1812993806839005
4.705791666666667,0.356804022216797,-0.0360979027748108,-3.7022954744339
4.706397727272727,0.301718572998047,0.040542722225189204,-3.82444147052765
4.707003787878788,0.613071112060547,0.00940746831893921,-3.8891069978714
4.707609848484848,0.708871893310547,0.155503659725189,-3.93461236896515
4.708215909090909,0.38314923706054704,0.112393308162689,-3.9705376619339
4.70882196969697,0.639416326904297,-0.08639331293106081,-3.93461236896515
4.70942803030303,0.498110174560547,0.0022224097251892097,-4.0950786775589
4.710034090909091,0.560380682373047,0.136343503475189,-3.92982232990265
4.710640151515152,0.47176495971679705,0.169873776912689,-3.96335260334015
4.711246212121212,0.440629705810547,0.102813230037689,-3.99688287677765
4.711852272727273,0.440629705810547,-0.134293703556061,-3.91545221271515
4.712458333333333,0.450209783935547,-0.0887883324623108,-3.9825127595901497
4.713064393939394,0.375964178466797,0.0501228003501892,-4.0615484041214
4.713670454545455,0.529245428466797,0.114788327693939,-3.8627617830276497
4.714276515151515,0.696896795654297,0.196218991756439,-3.8172564119339
4.714882575757576,0.608281072998047,0.196218991756439,-3.85797174396515
4.715488636363636,0.579540838623047,0.0501228003501892,-3.8986870759964
4.716094696969697,0.450209783935547,0.162688718318939,-3.8028862947463997
4.716700757575758,0.366384100341797,0.265674558162689,-3.7430108064651497
4.717306818181818,0.6609715026855469,0.14831860113143902,-4.1669292634964
4.717912878787879,0.47176495971679705,0.0357526831626892,-4.2076445955276505
4.718518939393939,0.6010960144042969,-0.10315844964981101,-4.2148296541214005
4.719125,0.819042791748047,0.026172605037689197,-3.6687652009964
4.719731060606061,0.409494451904297,0.040542722225189204,-3.4532134431839
4.720337121212121,0.450209783935547,0.0644929175376892,-4.0711284822464
4.720943181818182,0.615466131591797,0.0716779761314392,-3.90108209552765
4.721549242424242,0.799882635498047,-0.07202319574356081,-3.84839166584015
4.722155303030303,0.696896795654297,0.12915844488143902,-4.109448794746401
4.722761363636364,0.8022776550292969,0.174663815975189,-3.8531817049026498
4.723367424242424,0.6609715026855469,-0.00256762933731079,-3.8364165681838998
4.723973484848485,0.438234686279297,0.0525178198814392,-4.0950786775589
4.724579545454545,0.36398908081054704,0.0357526831626892,-4.09747369709015
4.725185606060606,0.6058860534667969,0.215379148006439,-3.71427057209015
4.725791666666667,0.519665350341797,0.229749265193939,-3.8172564119339
4.726397727272727,0.45260480346679705,0.0381477026939392,-4.14058404865265
4.727003787878788,0.613071112060547,-0.045677980899810795,-3.9322173494339
4.727609848484848,0.620256170654297,-0.124713625431061,-3.9729326814651498
4.72821590909091,0.6034910339355469,0.155503659725189,-3.9896978181839
4.728821969696971,0.146042303466797,0.270464597225189,-4.03520318927765
4.72942803030303,0.490925115966797,0.0908381323814392,-3.8459966463089
4.730034090909092,0.598700994873047,0.0884431128501892,-3.99688287677765
4.730640151515153,0.651391424560547,0.0573078589439392,-3.9849077791214
4.731246212121213,0.708871893310547,0.0333576636314392,-3.80049127521515
4.731852272727274,0.486135076904297,0.205799069881439,-3.75738092365265
4.732458333333334,0.466974920654297,0.155503659725189,-3.75259088459015
4.733064393939395,0.34243390502929705,-0.0911833519935608,-3.8795269197463997
4.7336704545454555,0.632231268310547,-0.23009448480606098,-4.1190288728714
4.734276515151516,0.675341619873047,0.0908381323814392,-3.9561675447463998
4.7348825757575765,0.519665350341797,0.246514401912689,-3.7741460603714
4.735488636363637,0.419074530029297,0.186638913631439,-3.88671197834015
4.7360946969696975,0.613071112060547,-0.06723315668106081,-4.0950786775589
4.7367007575757585,0.677736639404297,-0.167823976993561,-4.0328081697464
4.7373068181818185,0.6010960144042969,0.0141975073814392,-4.16453424396515
4.7379128787878795,0.5843308776855469,0.150713620662689,-3.9729326814651498
4.7385189393939395,0.42386456909179704,0.284834714412689,-3.75259088459015
4.7391250000000005,0.692106756591797,0.114788327693939,-4.14058404865265
4.739731060606061,0.5651707214355469,-0.08639331293106081,-3.9992778963088997
4.7403371212121215,0.366384100341797,0.00461742925643921,-3.91545221271515
4.740943181818182,0.548405584716797,0.17945385503768901,-4.06394342365265
4.7415492424242425,0.593910955810547,0.141133542537689,-3.8938970369339
4.742155303030303,0.608281072998047,0.0644929175376892,-3.79570123615265
4.742761363636364,0.440629705810547,0.196218991756439,-3.67116022052765
4.743367424242424,0.337643865966797,0.28722973394393897,-3.8124663728714
4.743973484848485,0.510085272216797,0.100418210506439,-4.07831354084015
4.744579545454545,0.5412205261230469,-0.043282961368560795,-3.9082671541214
4.745185606060606,0.428654608154297,-0.045677980899810795,-4.01125299396515
4.745791666666667,0.481345037841797,0.0812580542564392,-4.109448794746401
4.746397727272727,0.5819358581542969,0.105208249568939,-4.08789361896515
4.747003787878788,0.5819358581542969,-0.048073000431060796,-4.0136480134964
4.747609848484848,0.421469549560547,0.112393308162689,-4.2004595369339
4.748215909090909,0.47415997924804704,0.107603269100189,-4.23159479084015
4.74882196969697,0.634626287841797,-0.00256762933731079,-4.289075259590151
4.74942803030303,0.457394842529297,0.0597028784751892,-3.68553033771515
4.750034090909091,0.6226511901855469,0.174663815975189,-3.89150201740265
4.750640151515152,0.579540838623047,0.09562817144393919,-4.04478326740265
4.751246212121212,0.574750799560547,0.141133542537689,-3.7262456697464
4.751852272727273,0.531640447998047,0.167478757381439,-3.9417974275589
4.752458333333333,0.550800604248047,0.0692829566001892,-3.8507866853714
4.753064393939394,0.5843308776855469,0.160293698787689,-4.0280181306839
4.753670454545455,0.241843084716797,0.0884431128501892,-3.95377252521515
4.754276515151515,0.517270330810547,-0.21572436761856098,-3.81007135334015
4.754882575757576,0.637021307373047,-0.191774172306061,-4.06394342365265
4.755488636363636,0.637021307373047,-0.0145427269935608,-4.116633853340151
4.756094696969697,0.512480291748047,-0.0217277855873108,-4.0040679353714
4.756700757575758,0.186757635498047,0.09562817144393919,-4.150164126777651
4.757306818181818,0.431049627685547,0.00461742925643921,-3.9849077791214
4.757912878787879,0.390334295654297,-0.115133547306061,-3.90587213459015
4.758518939393939,0.33524884643554703,0.0118024878501892,-4.19327447834015
4.759125,0.361594061279297,0.19861401128768902,-3.8507866853714
4.759731060606061,0.529245428466797,0.114788327693939,-3.85797174396515
4.760337121212121,0.629836248779297,0.23932934331893901,-4.03520318927765
4.760943181818182,0.40230939331054705,0.21298412847518902,-3.72385065021515
4.761549242424242,0.648996405029297,0.09562817144393919,-4.15974420490265
4.762155303030303,0.526850408935547,-0.0959733910560608,-3.96335260334015
4.762761363636364,0.347223944091797,0.0668879370689392,-3.8938970369339
4.763367424242424,0.478950018310547,0.102813230037689,-3.96335260334015
4.763973484848485,0.502900213623047,-0.00017260980606079098,-3.9825127595901497
4.764579545454545,0.6034910339355469,-0.07681323480606081,-4.116633853340151
4.765185606060606,0.44541974487304703,-0.0600480980873108,-3.9825127595901497
4.765791666666667,0.48374005737304704,0.28004467535018895,-4.1860894197464
4.766397727272727,0.569960760498047,0.174663815975189,-3.96814264240265
4.767003787878788,0.6825266784667969,0.030962644100189198,-3.9370073884964
4.767609848484848,0.526850408935547,0.174663815975189,-3.9465874666214
4.768215909090909,0.359199041748047,0.0549128394126892,-3.8843169588089
4.768821969696971,0.6657615417480469,0.15789867925643902,-3.8699468416214
4.76942803030303,0.569960760498047,0.246514401912689,-3.9130571931838998
4.770034090909091,0.567565740966797,0.00461742925643921,-4.0543633455276495
4.770640151515151,0.478950018310547,-0.0360979027748108,-3.7885161775589
4.771246212121213,0.620256170654297,0.0501228003501892,-4.0711284822464
4.771852272727274,0.591515936279297,0.0381477026939392,-4.25075494709015
4.772458333333333,0.632231268310547,0.0668879370689392,-3.8220464509964
4.773064393939395,0.593910955810547,0.0118024878501892,-3.87713190021515
4.773670454545456,0.689711737060547,-0.050468019962310796,-3.8962920564651498
4.774276515151516,0.658576483154297,0.0620978980064392,-3.9394024080276497
4.774882575757577,0.416679510498047,0.256094480037689,-3.8555767244339
4.775488636363637,0.639416326904297,0.270464597225189,-3.8220464509964
4.776094696969698,0.567565740966797,0.191428952693939,-4.1381890291214
4.7767007575757585,0.41188947143554705,0.107603269100189,-3.8891069978714
4.777306818181819,0.311298651123047,0.131553464412689,-3.83402154865265
4.7779128787878795,0.653786444091797,0.0597028784751892,-4.142979068183901
4.77851893939394,0.672946600341797,0.121973386287689,-3.72864068927765
4.7791250000000005,0.613071112060547,0.251304440975189,-3.6831353181838997
4.7797310606060615,0.617861151123047,0.126763425350189,-3.48913873615265
4.7803371212121215,0.375964178466797,0.09562817144393919,-3.89150201740265
4.7809431818181825,0.39272931518554705,0.0620978980064392,-4.1142388338089
4.7815492424242425,0.529245428466797,0.201009030818939,-3.8507866853714
4.7821553030303035,0.538825506591797,-0.043282961368560795,-4.0184380525589
4.782761363636364,0.486135076904297,0.09802319097518919,-3.94898248615265
4.7833674242424244,0.579540838623047,0.160293698787689,-3.8603667634964
4.783973484848485,0.7208469909667969,-0.050468019962310796,-3.8172564119339
4.7845795454545454,0.6825266784667969,0.0477277808189392,-4.1717193025589
4.785185606060606,0.550800604248047,0.162688718318939,-4.123818911933901
4.785791666666667,0.617861151123047,0.0740729956626892,-3.95377252521515
4.786397727272727,0.718451971435547,0.00940746831893921,-3.8891069978714
4.787003787878788,0.648996405029297,0.28004467535018895,-3.9801177400589
4.787609848484849,0.469369940185547,0.12915844488143902,-3.90587213459015
4.788215909090909,0.44302472534179704,-0.07441821527481081,-3.9561675447463998
4.78882196969697,0.550800604248047,-0.048073000431060796,-4.1812993806839005
4.78942803030303,0.591515936279297,0.0692829566001892,-4.128608950996401
4.790034090909091,0.531640447998047,0.0237775855064392,-4.09747369709015
4.790640151515152,0.754377264404297,-0.127108644962311,-3.88192193927765
4.791246212121212,0.6250462097167969,0.234539304256439,-3.8028862947463997
4.791852272727273,0.507690252685547,0.0237775855064392,-3.89150201740265
4.792458333333333,0.656181463623047,0.0764680151939392,-3.94419244709015
4.793064393939394,0.634626287841797,0.24411938238143902,-4.0328081697464
4.793670454545455,0.5005051940917971,0.28962475347518896,-3.89150201740265
4.794276515151515,0.34243390502929705,0.25848949956893896,-3.9322173494339
4.794882575757576,0.505295233154297,0.19861401128768902,-4.0519683259964
4.795488636363636,0.589120916748047,0.13873852300643902,-3.86755182209015
4.796094696969697,0.476554998779297,0.0333576636314392,-3.9130571931838998
4.796700757575758,0.438234686279297,0.126763425350189,-3.9394024080276497
4.797306818181818,0.45260480346679705,0.0740729956626892,-3.9226372713088997
4.797912878787879,0.613071112060547,-0.0360979027748108,-3.9322173494339
4.798518939393939,0.675341619873047,-0.050468019962310796,-4.0950786775589
4.799125,0.6226511901855469,0.162688718318939,-4.243569888496401
4.799731060606061,0.613071112060547,0.0525178198814392,-3.8603667634964
4.800337121212121,0.629836248779297,0.114788327693939,-3.8531817049026498
4.800943181818182,0.41428449096679704,0.0141975073814392,-3.99209283771515
4.801549242424242,0.42386456909179704,0.162688718318939,-4.14537408771515
4.802155303030303,0.589120916748047,0.232144284725189,-4.0543633455276495
4.802761363636364,0.579540838623047,0.117183347225189,-3.96814264240265
4.803367424242424,0.47176495971679705,0.14831860113143902,-3.9825127595901497
4.803973484848485,0.5220603698730469,0.09323315191268919,-4.0280181306839
4.804579545454545,0.7040818542480469,-0.0384929223060608,-4.0543633455276495
4.805185606060606,0.330458807373047,0.028567624568939198,-3.99209283771515
4.805791666666667,0.481345037841797,0.141133542537689,-4.04478326740265
4.806397727272727,0.536430487060547,0.09802319097518919,-3.8843169588089
4.807003787878788,0.692106756591797,-0.0313078637123108,-3.95856256427765
4.807609848484848,0.646601385498047,-0.045677980899810795,-3.9896978181839
4.808215909090909,0.699291815185547,0.0549128394126892,-4.00167291584015
4.80882196969697,0.730427069091797,0.100418210506439,-3.96814264240265
4.80942803030303,0.40230939331054705,0.0908381323814392,-3.45081842365265
4.810034090909092,0.6609715026855469,0.14352856206893902,-3.4532134431839
4.810640151515153,0.792697576904297,0.0525178198814392,-3.95856256427765
4.811246212121212,0.6226511901855469,0.0788630347251892,-4.01125299396515
4.811852272727274,0.531640447998047,0.241724362850189,-3.76217096271515
4.812458333333334,0.490925115966797,0.0620978980064392,-3.8507866853714
4.813064393939395,0.7016868347167969,0.0381477026939392,-3.88192193927765
4.813670454545456,0.648996405029297,-0.0360979027748108,-3.8603667634964
4.814276515151516,0.514875311279297,0.0836530737876892,-3.7837261384964
4.814882575757577,0.617861151123047,0.117183347225189,-3.6112847322464
4.815488636363637,0.536430487060547,0.126763425350189,-3.7501958650589
4.816094696969698,0.397519354248047,0.0165925269126892,-3.8795269197463997
4.8167007575757586,0.6633665222167969,0.0118024878501892,-3.8028862947463997
4.817306818181819,0.49332013549804704,0.107603269100189,-3.7765410799026498
4.8179128787878795,0.586725897216797,0.0213825659751892,-4.03041315021515
4.81851893939394,0.557985662841797,-0.0241228051185608,-3.7693560213089
4.8191250000000005,0.337643865966797,0.09802319097518919,-3.9034771150589
4.8197310606060615,0.819042791748047,0.0716779761314392,-3.94898248615265
4.8203371212121215,0.399914373779297,0.145923581600189,-4.0423882478714
4.8209431818181825,0.26339826049804704,0.186638913631439,-4.07831354084015
4.8215492424242425,0.33285382690429705,-0.0576530785560608,-3.7837261384964
4.8221553030303035,0.615466131591797,-0.050468019962310796,-4.1190288728714
4.822761363636364,0.6058860534667969,-0.0552580590248108,-4.09268365802765
4.8233674242424245,0.47415997924804704,0.141133542537689,-3.98730279865265
4.823973484848485,0.5627757019042969,0.256094480037689,-3.9465874666214
4.8245795454545455,0.502900213623047,0.325550046443939,-3.9513775056839
4.825185606060606,0.5436155456542969,0.109998288631439,-3.9609575838089
4.825791666666667,0.517270330810547,-0.0384929223060608,-3.97772272052765
4.826397727272727,0.627441229248047,-0.17500903558731098,-3.9417974275589
4.827003787878788,0.653786444091797,0.222564206600189,-4.0328081697464
4.827609848484848,0.5220603698730469,0.483621335506439,-3.9705376619339
4.828215909090909,0.486135076904297,-0.06723315668106081,-3.80049127521515
4.82882196969697,0.634626287841797,-0.10076343011856101,-3.99688287677765
4.82942803030303,0.751982244873047,-0.019332766056060803,-4.0663384431839
4.830034090909091,0.502900213623047,0.186638913631439,-3.91545221271515
4.830640151515152,0.5244553894042969,0.227354245662689,-4.0950786775589
4.831246212121212,0.510085272216797,0.0620978980064392,-3.7837261384964
4.831852272727273,0.46218488159179705,0.0165925269126892,-3.6687652009964
4.832458333333333,0.41428449096679704,0.0477277808189392,-4.0950786775589
4.833064393939394,0.5843308776855469,0.263279538631439,-3.9178472322464
4.833670454545455,0.457394842529297,0.117183347225189,-3.86755182209015
4.834276515151515,0.46218488159179705,0.0692829566001892,-3.99209283771515
4.834882575757576,0.708871893310547,-0.0241228051185608,-3.8627617830276497
4.835488636363636,0.553195623779297,0.141133542537689,-4.03041315021515
4.836094696969697,0.773537420654297,0.201009030818939,-4.0519683259964
4.836700757575758,0.728032049560547,-0.0887883324623108,-3.9465874666214
4.837306818181818,0.634626287841797,0.0740729956626892,-3.99688287677765
4.837912878787879,0.457394842529297,0.0764680151939392,-3.52266900959015
4.838518939393939,0.428654608154297,0.0860480933189392,-3.45081842365265
4.839125,0.620256170654297,-0.0241228051185608,-3.73822076740265
4.839731060606061,0.569960760498047,0.165083737850189,-3.99209283771515
4.840337121212121,0.716056951904297,0.117183347225189,-4.0663384431839
4.840943181818182,0.639416326904297,0.0022224097251892097,-3.9944878572464
4.841549242424242,0.45260480346679705,0.0477277808189392,-3.92982232990265
4.842155303030303,0.397519354248047,0.09562817144393919,-3.7933062166213998
4.842761363636364,0.49332013549804704,0.0836530737876892,-3.9322173494339
4.843367424242424,0.529245428466797,0.0788630347251892,-3.78133111896515
4.843973484848485,0.6633665222167969,0.0716779761314392,-3.83881158771515
4.844579545454545,0.768747381591797,-0.00256762933731079,-4.150164126777651
4.845185606060606,0.526850408935547,0.026172605037689197,-3.9370073884964
4.845791666666667,0.371174139404297,-0.0265178246498108,-3.8220464509964
4.846397727272727,0.498110174560547,0.21298412847518902,-3.8555767244339
4.847003787878788,0.514875311279297,0.026172605037689197,-4.0232280916214
4.847609848484849,0.366384100341797,0.0189875464439392,-4.1573491853714
4.848215909090909,0.38554425659179703,0.172268796443939,-3.9992778963088997
4.84882196969697,0.577145819091797,-0.0121477074623108,-4.16453424396515
4.84942803030303,0.677736639404297,-0.0121477074623108,-3.77175104084015
4.850034090909091,0.438234686279297,-0.00256762933731079,-3.70948053302765
4.850640151515153,0.507690252685547,0.00461742925643921,-4.14537408771515
4.851246212121212,0.438234686279297,0.102813230037689,-3.8962920564651498
4.851852272727273,0.476554998779297,0.0692829566001892,-3.7597759431838997
4.852458333333333,0.46218488159179705,0.205799069881439,-3.9417974275589
4.853064393939395,0.505295233154297,0.0788630347251892,-4.07831354084015
4.853670454545456,0.531640447998047,-0.07441821527481081,-4.03041315021515
4.854276515151515,0.6058860534667969,0.18903393316268902,-4.188484439277651
4.854882575757577,0.989089178466797,0.100418210506439,-4.183694400215151
4.855488636363637,0.5220603698730469,0.09323315191268919,-4.1525591463089
4.856094696969698,0.316088690185547,0.26806957769393897,-4.0375982088089
4.856700757575759,0.696896795654297,0.24890942144393902,-3.96814264240265
4.857306818181819,0.5843308776855469,0.21777416753768902,-4.0040679353714
4.85791287878788,0.706476873779297,0.026172605037689197,-3.90108209552765
4.85851893939394,0.46457990112304703,0.0189875464439392,-3.89150201740265
4.859125000000001,0.596305975341797,-0.0121477074623108,-4.08789361896515
4.8597310606060615,0.529245428466797,-0.115133547306061,-4.0567583650589
4.860337121212122,0.390334295654297,-0.0911833519935608,-4.0232280916214
4.8609431818181825,0.553195623779297,0.0644929175376892,-4.0232280916214
4.861549242424243,0.421469549560547,0.265674558162689,-3.94419244709015
4.8621553030303035,0.579540838623047,0.13873852300643902,-4.08789361896515
4.8627613636363645,0.687316717529297,-0.0911833519935608,-4.0136480134964
4.8633674242424245,0.6825266784667969,-0.08160327386856081,-4.0088579744339
4.8639734848484855,0.387939276123047,0.306389890193939,-4.1573491853714
4.8645795454545455,0.634626287841797,0.0189875464439392,-3.8747368806839
4.8651856060606065,0.787907537841797,0.045332761287689205,-3.9322173494339
4.865791666666667,0.5005051940917971,0.040542722225189204,-4.03999322834015
4.8663977272727275,0.466974920654297,0.030962644100189198,-4.0807085603713995
4.867003787878788,0.548405584716797,0.21777416753768902,-3.91545221271515
4.8676098484848485,0.390334295654297,0.150713620662689,-3.9370073884964
4.868215909090909,0.598700994873047,0.162688718318939,-4.442356509590151
4.86882196969697,0.687316717529297,-0.016937746524810803,-4.2244097322464
4.86942803030303,0.318483709716797,-0.019332766056060803,-3.5154839509964
4.870034090909091,0.613071112060547,0.0836530737876892,-3.4101030916214
4.870640151515152,0.560380682373047,0.263279538631439,-3.6975054353714
4.871246212121212,0.505295233154297,0.028567624568939198,-3.8076763338089
4.871852272727273,0.39512433471679703,-0.08399829339981081,-3.8891069978714
4.872458333333333,0.49332013549804704,0.0237775855064392,-4.0471782869339
4.873064393939394,0.574750799560547,0.232144284725189,-3.9849077791214
4.873670454545455,0.440629705810547,0.19382397222518902,-3.7789360994339
4.874276515151515,0.486135076904297,0.0740729956626892,-3.8938970369339
4.874882575757576,0.476554998779297,-0.115133547306061,-3.9849077791214
4.875488636363636,0.7232420104980469,0.0141975073814392,-4.08310357990265
4.876094696969697,0.488530096435547,-0.019332766056060803,-3.9825127595901497
4.876700757575758,0.349618963623047,0.0022224097251892097,-4.07352350177765
4.877306818181818,0.387939276123047,0.20340405035018902,-4.04478326740265
4.877912878787879,0.579540838623047,-0.0337028832435608,-4.1669292634964
4.878518939393939,0.811857733154297,0.0501228003501892,-4.322605533027651
4.879125,0.653786444091797,0.09323315191268919,-3.71906061115265
4.879731060606061,0.38554425659179703,0.0860480933189392,-3.7885161775589
4.880337121212121,0.6010960144042969,-0.0337028832435608,-4.12621393146515
4.880943181818182,0.5460105651855469,0.0357526831626892,-4.14537408771515
4.881549242424242,0.572355780029297,-0.0217277855873108,-4.0088579744339
4.882155303030303,0.680131658935547,-0.0265178246498108,-3.88671197834015
4.882761363636364,0.675341619873047,-0.0360979027748108,-4.12621393146515
4.883367424242424,0.668156561279297,0.13873852300643902,-3.92982232990265
4.883973484848485,0.478950018310547,-0.127108644962311,-3.81486139240265
4.884579545454545,0.617861151123047,-0.218119387149811,-3.9178472322464
4.885185606060606,0.615466131591797,0.229749265193939,-3.9825127595901497
4.885791666666667,0.387939276123047,-0.019332766056060803,-3.9825127595901497
4.886397727272727,0.46457990112304703,0.0501228003501892,-4.0950786775589
4.887003787878788,0.459789862060547,0.117183347225189,-4.0184380525589
4.887609848484848,0.586725897216797,-0.06723315668106081,-3.95856256427765
4.888215909090909,0.534035467529297,0.136343503475189,-4.07831354084015
4.88882196969697,0.5819358581542969,0.282439694881439,-4.0519683259964
4.88942803030303,0.572355780029297,0.21777416753768902,-4.02562311115265
4.890034090909091,0.519665350341797,-0.10076343011856101,-3.7741460603714
4.890640151515152,0.692106756591797,-0.08639331293106081,-3.9226372713088997
4.891246212121212,0.33524884643554703,0.301599851131439,-4.21722467365265
4.891852272727273,0.328063787841797,0.21777416753768902,-3.82444147052765
4.892458333333333,0.481345037841797,0.13873852300643902,-3.7070855134964
4.893064393939394,0.5819358581542969,0.224959226131439,-4.102263736152651
4.893670454545456,0.809462713623047,0.030962644100189198,-3.9370073884964
4.894276515151515,0.519665350341797,-0.110343508243561,-3.92503229084015
4.894882575757576,0.512480291748047,0.177058835506439,-4.102263736152651
4.895488636363636,0.675341619873047,0.15310864019393902,-4.0950786775589
4.896094696969698,0.677736639404297,-0.08160327386856081,-4.1333989900589
4.896700757575759,0.6418113464355469,0.045332761287689205,-4.128608950996401
4.897306818181819,0.48374005737304704,0.0836530737876892,-3.8603667634964
4.89791287878788,0.740007147216797,0.20340405035018902,-3.76217096271515
4.89851893939394,0.7040818542480469,0.17945385503768901,-3.99688287677765
4.899125000000001,0.340038885498047,0.0022224097251892097,-3.81486139240265
4.899731060606062,0.347223944091797,-0.0241228051185608,-4.27949518146515
4.900337121212122,0.6034910339355469,-0.0384929223060608,-4.3585308259964
4.900943181818183,0.44302472534179704,0.19861401128768902,-3.9322173494339
4.901549242424243,0.529245428466797,0.19382397222518902,-3.90587213459015
4.902155303030304,0.6633665222167969,0.220169187068939,-3.9801177400589
4.9027613636363645,0.572355780029297,-0.045677980899810795,-3.9178472322464
4.9033674242424246,0.613071112060547,0.045332761287689205,-3.9370073884964
4.9039734848484855,0.47176495971679705,0.15310864019393902,-4.17411432209015
4.9045795454545456,0.589120916748047,0.23932934331893901,-3.93461236896515
4.9051856060606065,0.534035467529297,0.17945385503768901,-4.0854985994339
4.905791666666667,0.536430487060547,-0.28996997308731104,-4.0615484041214
4.9063977272727275,0.591515936279297,0.177058835506439,-3.8747368806839
4.907003787878788,0.337643865966797,0.19861401128768902,-4.03520318927765
4.907609848484849,0.39512433471679703,0.150713620662689,-3.9825127595901497
4.908215909090909,0.481345037841797,0.263279538631439,-3.9178472322464
4.90882196969697,0.5244553894042969,0.117183347225189,-4.06394342365265
4.90942803030303,0.586725897216797,0.0908381323814392,-3.9394024080276497
4.910034090909091,0.5460105651855469,0.155503659725189,-3.91066217365265
4.910640151515152,0.529245428466797,0.13394848394393902,-3.9992778963088997
4.911246212121212,0.790302557373047,-0.019332766056060803,-3.94898248615265
4.911852272727273,0.7256370300292969,0.0740729956626892,-4.00646295490265
4.912458333333333,0.450209783935547,0.109998288631439,-3.84360162677765
4.913064393939394,0.5460105651855469,0.0860480933189392,-3.7741460603714
4.913670454545455,0.7208469909667969,0.124368405818939,-3.96814264240265
4.914276515151515,0.692106756591797,0.220169187068939,-4.0040679353714
4.914882575757576,0.586725897216797,-0.115133547306061,-3.9226372713088997
4.915488636363636,0.6825266784667969,-0.124713625431061,-4.1573491853714
4.916094696969697,0.526850408935547,0.00461742925643921,-4.07831354084015
4.916700757575758,0.438234686279297,0.0764680151939392,-3.8843169588089
4.917306818181818,0.7256370300292969,0.09802319097518919,-3.75738092365265
4.917912878787879,0.5651707214355469,-0.00735766839981079,-3.9130571931838998
4.918518939393939,0.572355780029297,0.09802319097518919,-3.9753277009964
4.919125,0.6250462097167969,0.162688718318939,-3.9322173494339
4.919731060606061,0.280163397216797,0.162688718318939,-4.0280181306839
4.920337121212121,0.6058860534667969,0.105208249568939,-3.9513775056839
4.920943181818182,0.397519354248047,0.112393308162689,-3.9370073884964
4.921549242424242,0.5843308776855469,0.107603269100189,-3.79091119709015
4.922155303030303,0.637021307373047,0.18903393316268902,-3.90108209552765
4.922761363636364,0.47415997924804704,0.0668879370689392,-3.94898248615265
4.923367424242424,0.687316717529297,0.18424389410018902,-3.94898248615265
4.923973484848485,0.47415997924804704,0.0692829566001892,-3.7789360994339
4.924579545454545,0.653786444091797,-0.0241228051185608,-3.8507866853714
4.925185606060606,0.613071112060547,0.0836530737876892,-4.1525591463089
4.925791666666667,0.459789862060547,0.0022224097251892097,-3.99209283771515
4.926397727272727,0.337643865966797,0.0812580542564392,-3.8627617830276497
4.927003787878788,0.488530096435547,0.0716779761314392,-3.91545221271515
4.927609848484848,0.634626287841797,0.0788630347251892,-3.9274273103714
4.928215909090909,0.591515936279297,0.09802319097518919,-3.8747368806839
4.92882196969697,0.735217108154297,0.107603269100189,-3.87713190021515
4.92942803030303,0.672946600341797,0.0189875464439392,-3.4580034822464
4.930034090909091,0.488530096435547,0.124368405818939,-3.3813628572464
4.930640151515152,0.7040818542480469,0.109998288631439,-3.92982232990265
4.931246212121212,0.5460105651855469,-0.0145427269935608,-3.9513775056839
4.931852272727273,0.608281072998047,0.251304440975189,-3.8795269197463997
4.932458333333333,0.531640447998047,0.181848874568939,-3.7933062166213998
4.933064393939394,0.687316717529297,-0.0648381371498108,-3.82923150959015
4.933670454545455,0.637021307373047,0.0573078589439392,-3.9417974275589
4.934276515151515,0.419074530029297,0.112393308162689,-4.12621393146515
4.934882575757577,0.534035467529297,0.232144284725189,-4.0902886384964
4.935488636363636,0.512480291748047,0.0237775855064392,-3.8555767244339
4.936094696969697,0.469369940185547,0.121973386287689,-3.8795269197463997
4.936700757575759,0.328063787841797,0.145923581600189,-4.109448794746401
4.937306818181819,0.481345037841797,0.028567624568939198,-3.9513775056839
4.93791287878788,0.6633665222167969,0.040542722225189204,-4.0040679353714
4.938518939393939,0.459789862060547,0.030962644100189198,-4.01604303302765
4.939125000000001,0.32327374877929704,-0.08639331293106081,-3.7022954744339
4.939731060606062,0.5412205261230469,-0.08399829339981081,-4.17411432209015
4.940337121212122,0.5436155456542969,0.172268796443939,-4.19327447834015
4.940943181818183,0.632231268310547,-0.0241228051185608,-3.92982232990265
4.941549242424243,0.7424021667480469,0.201009030818939,-4.1525591463089
4.942155303030304,0.668156561279297,0.19382397222518902,-4.12621393146515
4.9427613636363645,0.488530096435547,0.0860480933189392,-3.94419244709015
4.943367424242425,0.47415997924804704,0.315969968318939,-3.9322173494339
4.9439734848484855,0.7831174987792969,0.14831860113143902,-3.9394024080276497
4.944579545454546,0.632231268310547,0.09323315191268919,-3.8220464509964
4.9451856060606065,0.426259588623047,0.18903393316268902,-3.83402154865265
4.9457916666666675,0.46218488159179705,0.102813230037689,-3.88192193927765
4.9463977272727275,0.6442063659667969,0.0692829566001892,-3.9394024080276497
4.9470037878787885,0.359199041748047,0.294414792537689,-3.8891069978714
4.9476098484848485,0.47176495971679705,0.20819408941268902,-3.84360162677765
4.9482159090909095,0.716056951904297,0.0740729956626892,-4.06394342365265
4.94882196969697,0.378359197998047,0.19861401128768902,-3.84839166584015
4.9494280303030305,0.538825506591797,0.251304440975189,-3.68074029865265
4.950034090909091,0.486135076904297,0.181848874568939,-3.7933062166213998
4.950640151515152,0.670551580810547,-0.0217277855873108,-3.82923150959015
4.951246212121212,0.44302472534179704,0.141133542537689,-3.84839166584015
4.951852272727273,0.368779119873047,0.315969968318939,-3.9944878572464
4.952458333333333,0.6010960144042969,0.117183347225189,-3.9753277009964
4.953064393939394,0.5005051940917971,-0.043282961368560795,-3.7501958650589
4.953670454545455,0.375964178466797,0.030962644100189198,-4.0040679353714
4.954276515151515,0.5412205261230469,0.0716779761314392,-3.94419244709015
4.954882575757576,0.553195623779297,0.042937741756439204,-4.06394342365265
4.955488636363636,0.431049627685547,-0.07441821527481081,-4.0184380525589
4.956094696969697,0.447814764404297,0.121973386287689,-4.116633853340151
4.956700757575758,0.6633665222167969,0.124368405818939,-4.04957330646515
4.957306818181818,0.596305975341797,0.131553464412689,-3.84839166584015
4.957912878787879,0.41428449096679704,0.0477277808189392,-4.41361627521515
4.958518939393939,0.696896795654297,-0.019332766056060803,-4.1190288728714
4.959125,0.754377264404297,0.253699460506439,-3.60888971271515
4.959731060606061,0.579540838623047,0.169873776912689,-3.5825444978714
4.960337121212121,0.732822088623047,-0.0121477074623108,-4.06394342365265
4.960943181818182,0.651391424560547,0.292019773006439,-4.06394342365265
4.961549242424242,0.490925115966797,0.29920483160018896,-3.9849077791214
4.962155303030303,0.589120916748047,-0.009752687931060789,-4.10705377521515
4.962761363636364,0.510085272216797,-0.0600480980873108,-3.87713190021515
4.963367424242424,0.653786444091797,-0.16063891839981098,-4.1214238924026505
4.963973484848485,0.488530096435547,0.0118024878501892,-4.102263736152651
4.964579545454545,0.407099432373047,0.09802319097518919,-3.9801177400589
4.965185606060606,0.48374005737304704,0.0477277808189392,-4.06394342365265
4.965791666666667,0.557985662841797,0.172268796443939,-3.92982232990265
4.966397727272727,0.589120916748047,0.00940746831893921,-3.9513775056839
4.967003787878788,0.6250462097167969,-0.129503664493561,-3.76696100177765
4.967609848484849,0.577145819091797,0.0908381323814392,-3.81486139240265
4.968215909090909,0.46218488159179705,0.270464597225189,-4.0208330720901495
4.96882196969697,0.33524884643554703,0.191428952693939,-4.01604303302765
4.96942803030303,0.627441229248047,0.15310864019393902,-3.8603667634964
4.970034090909091,0.5651707214355469,-0.0241228051185608,-3.72864068927765
4.970640151515151,0.435839666748047,-0.00256762933731079,-4.0088579744339
4.971246212121212,0.36398908081054704,0.150713620662689,-3.9082671541214
4.971852272727273,0.6058860534667969,0.112393308162689,-3.95377252521515
4.972458333333333,0.807067694091797,0.241724362850189,-3.99209283771515
4.973064393939394,0.340038885498047,-0.0384929223060608,-3.75259088459015
4.973670454545455,0.495715155029297,0.232144284725189,-4.128608950996401
4.974276515151515,0.572355780029297,0.251304440975189,-3.9609575838089
4.974882575757576,0.567565740966797,-0.0217277855873108,-3.8843169588089
4.975488636363636,0.287348455810547,0.09562817144393919,-4.14058404865265
4.976094696969697,0.488530096435547,0.15310864019393902,-4.04478326740265
4.976700757575758,0.577145819091797,0.19382397222518902,-3.80528131427765
4.977306818181818,0.596305975341797,0.0501228003501892,-3.84360162677765
4.97791287878788,0.538825506591797,0.272859616756439,-4.0998687166214
4.978518939393939,0.507690252685547,-0.124713625431061,-3.9705376619339
4.979125,0.6657615417480469,-0.06962817621231081,-3.83402154865265
4.979731060606062,0.387939276123047,0.0620978980064392,-4.08310357990265
4.980337121212122,0.567565740966797,-0.0624431176185608,-4.0950786775589
4.980943181818183,0.6849216979980469,0.215379148006439,-4.03041315021515
4.981549242424242,0.536430487060547,0.186638913631439,-4.109448794746401
4.982155303030304,0.36398908081054704,0.181848874568939,-4.102263736152651
4.982761363636365,0.639416326904297,0.0597028784751892,-3.92503229084015
4.983367424242425,0.416679510498047,0.0764680151939392,-3.94419244709015
4.983973484848486,0.45499982299804703,0.109998288631439,-4.0998687166214
4.984579545454546,0.737612127685547,0.131553464412689,-3.8699468416214
4.985185606060607,0.5005051940917971,0.0141975073814392,-3.83402154865265
4.9857916666666675,0.502900213623047,0.18424389410018902,-3.92503229084015
4.986397727272728,0.476554998779297,0.114788327693939,-4.0328081697464
4.9870037878787885,0.550800604248047,-0.177404055118561,-3.8938970369339
4.987609848484849,0.387939276123047,0.042937741756439204,-3.9992778963088997
4.9882159090909095,0.531640447998047,-0.0959733910560608,-4.45672662677765
4.9888219696969704,0.730427069091797,0.0788630347251892,-3.95377252521515
4.9894280303030305,0.6418113464355469,0.186638913631439,-3.7334307283401498
4.9900340909090914,0.5436155456542969,0.100418210506439,-3.6687652009964
4.990640151515152,0.440629705810547,0.0118024878501892,-3.8938970369339
4.9912462121212124,0.689711737060547,-0.0528630394935608,-4.0807085603713995
4.991852272727273,0.7016868347167969,0.12915844488143902,-3.9849077791214
4.992458333333333,0.5819358581542969,0.332735105037689,-4.150164126777651
4.993064393939394,0.447814764404297,0.20340405035018902,-4.04957330646515
4.993670454545455,0.378359197998047,0.15789867925643902,-3.9705376619339
4.994276515151515,0.356804022216797,0.131553464412689,-3.7980962556839
4.994882575757576,0.5412205261230469,0.160293698787689,-3.9729326814651498
4.995488636363636,0.656181463623047,-0.016937746524810803,-3.8986870759964
4.996094696969697,0.36398908081054704,-0.0313078637123108,-3.81486139240265
4.996700757575758,0.505295233154297,0.0118024878501892,-3.87234186115265
4.997306818181818,0.5005051940917971,-0.16542895746231098,-4.03520318927765
4.997912878787879,0.44541974487304703,0.0237775855064392,-4.0040679353714
4.998518939393939,0.481345037841797,0.0644929175376892,-3.85797174396515
4.999125,0.502900213623047,0.09323315191268919,-3.7549859041214
4.999731060606061,0.6034910339355469,0.040542722225189204,-3.8795269197463997
5.000337121212121,0.41188947143554705,0.191428952693939,-3.9729326814651498
5.000943181818182,0.620256170654297,0.294414792537689,-4.00167291584015
5.001549242424242,0.6010960144042969,0.0644929175376892,-3.84839166584015
5.002155303030303,0.5244553894042969,0.12915844488143902,-3.77175104084015
5.002761363636364,0.440629705810547,0.0620978980064392,-4.150164126777651
5.003367424242424,0.553195623779297,0.220169187068939,-3.9370073884964
5.003973484848485,0.5220603698730469,0.169873776912689,-3.8316265291214
5.004579545454545,0.431049627685547,-0.0217277855873108,-4.0854985994339
5.005185606060606,0.596305975341797,-0.07441821527481081,-4.02562311115265
5.005791666666667,0.505295233154297,-0.117528566837311,-3.9657476228714
5.006397727272727,0.637021307373047,-0.043282961368560795,-4.0854985994339
5.007003787878788,0.627441229248047,0.0525178198814392,-4.1717193025589
5.007609848484849,0.574750799560547,0.20340405035018902,-3.88671197834015
5.008215909090909,0.7232420104980469,-0.0337028832435608,-3.7645659822464
5.00882196969697,0.668156561279297,0.272859616756439,-3.92982232990265
5.00942803030303,0.512480291748047,0.040542722225189204,-3.8531817049026498
5.010034090909091,0.5627757019042969,0.109998288631439,-3.80049127521515
5.010640151515151,0.5843308776855469,0.210589108943939,-3.69032037677765
5.011246212121212,0.37356915893554704,-0.0265178246498108,-4.0040679353714
5.011852272727273,0.598700994873047,0.224959226131439,-4.21722467365265
5.012458333333333,0.6849216979980469,0.234539304256439,-4.0711284822464
5.013064393939394,0.613071112060547,0.045332761287689205,-3.96814264240265
5.013670454545455,0.457394842529297,-0.00735766839981079,-3.76696100177765
5.014276515151515,0.347223944091797,0.00701244878768921,-3.8699468416214
5.014882575757576,0.627441229248047,0.167478757381439,-4.08310357990265
5.015488636363636,0.5627757019042969,0.172268796443939,-3.9729326814651498
5.016094696969697,0.5843308776855469,0.00940746831893921,-3.99209283771515
5.016700757575759,0.44541974487304703,0.210589108943939,-3.9992778963088997
5.017306818181818,0.517270330810547,0.186638913631439,-3.8364165681838998
5.017912878787879,0.5819358581542969,0.102813230037689,-3.4292632478714
5.018518939393939,0.651391424560547,0.0692829566001892,-4.0423882478714
5.019125000000001,0.627441229248047,0.0692829566001892,-4.1908794588089
5.019731060606061,0.507690252685547,0.0573078589439392,-3.69511041584015
5.020337121212121,0.713661932373047,0.030962644100189198,-3.9417974275589
5.020943181818183,0.8022776550292969,0.0620978980064392,-4.03520318927765
5.021549242424243,0.8453880065917969,-0.08399829339981081,-3.86755182209015
5.022155303030303,0.610676092529297,-0.019332766056060803,-3.99209283771515
5.022761363636365,0.620256170654297,0.09562817144393919,-4.2914702791214
5.023367424242425,0.716056951904297,0.12915844488143902,-3.88671197834015
5.023973484848486,0.42386456909179704,0.0836530737876892,-3.92503229084015
5.0245795454545465,0.713661932373047,-0.0313078637123108,-4.0902886384964
5.025185606060607,0.835807928466797,0.0237775855064392,-3.84360162677765
5.0257916666666675,0.536430487060547,0.167478757381439,-3.73822076740265
5.026397727272728,0.431049627685547,-0.0648381371498108,-3.93461236896515
5.0270037878787885,0.5819358581542969,-0.0552580590248108,-4.19806451740265
5.027609848484849,0.514875311279297,-0.0408879418373108,-4.243569888496401
5.0282159090909095,0.457394842529297,-0.0408879418373108,-4.0328081697464
5.0288219696969705,0.598700994873047,0.0381477026939392,-4.10705377521515
5.0294280303030305,0.799882635498047,-0.00256762933731079,-3.7837261384964
5.0300340909090915,0.43344464721679704,0.107603269100189,-3.80049127521515
5.0306401515151515,0.318483709716797,0.0189875464439392,-3.85797174396515
5.0312462121212125,0.488530096435547,-0.127108644962311,-3.7980962556839
5.031852272727273,0.407099432373047,0.14352856206893902,-3.87234186115265
5.0324583333333335,0.531640447998047,0.177058835506439,-3.7885161775589
5.033064393939394,0.514875311279297,0.028567624568939198,-4.14058404865265
5.033670454545455,0.44541974487304703,0.0501228003501892,-4.0902886384964
5.034276515151515,0.426259588623047,0.18424389410018902,-3.98730279865265
5.034882575757576,0.699291815185547,0.0716779761314392,-3.86755182209015
5.035488636363636,0.5819358581542969,0.0908381323814392,-3.88192193927765
5.036094696969697,0.6058860534667969,0.18903393316268902,-3.91545221271515
5.036700757575758,0.577145819091797,-0.148663820743561,-3.8364165681838998
5.037306818181818,0.495715155029297,0.19382397222518902,-4.0040679353714
5.037912878787879,0.608281072998047,0.232144284725189,-3.8795269197463997
5.038518939393939,0.177177557373047,0.19382397222518902,-4.08789361896515
5.039125,0.378359197998047,-0.07441821527481081,-4.0136480134964
5.039731060606061,0.629836248779297,-0.10555346918106101,-3.9513775056839
5.040337121212121,0.560380682373047,0.107603269100189,-4.116633853340151
5.040943181818182,0.517270330810547,-0.0360979027748108,-3.8124663728714
5.041549242424242,0.557985662841797,0.0860480933189392,-3.8843169588089
5.042155303030303,0.689711737060547,0.160293698787689,-3.91545221271515
5.042761363636364,0.498110174560547,-0.016937746524810803,-3.96335260334015
5.043367424242424,0.457394842529297,0.0357526831626892,-3.8962920564651498
5.043973484848485,0.486135076904297,0.181848874568939,-3.6591851228714
5.044579545454545,0.375964178466797,-0.0887883324623108,-3.90108209552765
5.045185606060606,0.246633123779297,0.0620978980064392,-4.0519683259964
5.045791666666667,0.608281072998047,0.0716779761314392,-3.89150201740265
5.046397727272727,0.45260480346679705,0.21298412847518902,-3.8531817049026498
5.047003787878788,0.6250462097167969,0.19861401128768902,-3.8795269197463997
5.047609848484848,0.498110174560547,-0.0408879418373108,-3.8268364900589
5.048215909090909,0.320878729248047,0.0884431128501892,-4.1908794588089
5.04882196969697,0.5436155456542969,-0.17021899652481098,-4.12621393146515
5.04942803030303,0.495715155029297,0.0501228003501892,-3.5490142244339
5.050034090909091,0.447814764404297,0.0812580542564392,-3.71427057209015
5.050640151515152,0.572355780029297,-0.0528630394935608,-3.9274273103714
5.051246212121212,0.431049627685547,0.0165925269126892,-3.95377252521515
5.051852272727273,0.208312811279297,0.0381477026939392,-4.02562311115265
5.052458333333333,0.495715155029297,0.215379148006439,-4.2244097322464
5.053064393939394,0.608281072998047,-0.16542895746231098,-3.8531817049026498
5.053670454545455,0.6010960144042969,-0.110343508243561,-3.8795269197463997
5.054276515151515,0.490925115966797,0.17945385503768901,-4.14537408771515
5.054882575757576,0.586725897216797,0.026172605037689197,-3.92982232990265
5.055488636363636,0.692106756591797,0.174663815975189,-4.0423882478714
5.056094696969697,0.33524884643554703,0.028567624568939198,-3.71906061115265
5.056700757575758,0.24902814331054698,0.18424389410018902,-3.80049127521515
5.057306818181818,0.43344464721679704,0.136343503475189,-3.86755182209015
5.05791287878788,0.615466131591797,0.169873776912689,-3.9944878572464
5.058518939393939,0.569960760498047,0.169873776912689,-4.2244097322464
5.059125,0.613071112060547,-0.136688723087311,-3.92024225177765
5.059731060606062,0.766352362060547,0.0620978980064392,-3.9801177400589
5.060337121212122,0.512480291748047,0.177058835506439,-4.0519683259964
5.060943181818182,0.675341619873047,0.0644929175376892,-4.1717193025589
5.061549242424242,0.46218488159179705,0.15310864019393902,-3.9657476228714
5.062155303030304,0.459789862060547,0.30878490972518896,-3.8028862947463997
5.062761363636365,0.371174139404297,0.0213825659751892,-3.8795269197463997
5.063367424242424,0.6250462097167969,0.224959226131439,-3.81486139240265
5.063973484848486,0.7256370300292969,0.00461742925643921,-3.8699468416214
5.064579545454546,0.531640447998047,0.0549128394126892,-3.83402154865265
5.065185606060607,0.560380682373047,0.0884431128501892,-3.9705376619339
5.065791666666668,0.5412205261230469,-0.23009448480606098,-3.9465874666214
5.066397727272728,0.680131658935547,0.0213825659751892,-4.109448794746401
5.067003787878789,0.287348455810547,0.13394848394393902,-3.9753277009964
5.067609848484849,0.486135076904297,0.169873776912689,-4.27949518146515
5.06821590909091,0.740007147216797,-0.0576530785560608,-3.9705376619339
5.0688219696969705,0.555590643310547,0.040542722225189204,-3.96814264240265
5.069428030303031,0.692106756591797,0.09802319097518919,-3.9944878572464
5.0700340909090915,0.45260480346679705,0.117183347225189,-3.8076763338089
5.0706401515151525,0.5460105651855469,0.229749265193939,-3.99209283771515
5.0712462121212125,0.629836248779297,0.040542722225189204,-3.91066217365265
5.0718522727272735,0.505295233154297,0.0189875464439392,-4.1573491853714
5.0724583333333335,0.555590643310547,0.0668879370689392,-3.8076763338089
5.0730643939393945,0.5436155456542969,-0.17979907464981099,-3.9322173494339
5.073670454545455,0.632231268310547,-0.0576530785560608,-3.96335260334015
5.0742765151515155,0.560380682373047,0.28962475347518896,-4.0543633455276495
5.074882575757576,0.5627757019042969,0.0884431128501892,-4.150164126777651
5.0754886363636365,0.447814764404297,0.145923581600189,-4.0280181306839
5.076094696969697,0.457394842529297,0.117183347225189,-3.83881158771515
5.076700757575758,0.589120916748047,-0.07920825433731081,-3.8316265291214
5.077306818181818,0.431049627685547,0.17945385503768901,-4.1525591463089
5.077912878787879,0.536430487060547,0.241724362850189,-3.81007135334015
5.078518939393939,0.6609715026855469,0.26806957769393897,-3.38854791584015
5.079125,0.39512433471679703,0.0692829566001892,-4.0807085603713995
5.079731060606061,0.49332013549804704,0.045332761287689205,-3.5777544588089
5.080337121212121,0.7208469909667969,0.186638913631439,-3.76217096271515
5.080943181818182,0.6226511901855469,0.100418210506439,-4.17890436115265
5.081549242424242,0.589120916748047,-0.06723315668106081,-3.80528131427765
5.082155303030303,0.637021307373047,-0.0313078637123108,-4.06873346271515
5.082761363636364,0.5005051940917971,0.181848874568939,-3.9465874666214
5.083367424242424,0.6034910339355469,0.09323315191268919,-4.09747369709015
5.083973484848485,0.670551580810547,0.09802319097518919,-3.9609575838089
5.084579545454545,0.512480291748047,0.12915844488143902,-3.7262456697464
5.085185606060606,0.495715155029297,0.0477277808189392,-4.0902886384964
5.085791666666667,0.677736639404297,0.0477277808189392,-3.97772272052765
5.086397727272727,0.711266912841797,0.00461742925643921,-3.71427057209015
5.087003787878788,0.596305975341797,0.0333576636314392,-3.8268364900589
5.087609848484848,0.6058860534667969,-0.0552580590248108,-3.97772272052765
5.088215909090909,0.7016868347167969,0.0836530737876892,-3.92024225177765
5.08882196969697,0.387939276123047,0.136343503475189,-3.6879253572464
5.08942803030303,0.567565740966797,-0.0121477074623108,-3.7789360994339
5.090034090909091,0.44541974487304703,0.145923581600189,-3.8507866853714
5.090640151515152,0.505295233154297,0.253699460506439,-3.9944878572464
5.091246212121212,0.46457990112304703,0.124368405818939,-3.8627617830276497
5.091852272727273,0.26579328002929703,0.042937741756439204,-4.0759185213089
5.092458333333333,0.7639573425292969,0.167478757381439,-3.9992778963088997
5.093064393939394,0.26339826049804704,0.0692829566001892,-4.08310357990265
5.093670454545455,0.366384100341797,0.124368405818939,-4.162139224433901
5.094276515151515,0.639416326904297,-0.117528566837311,-4.0423882478714
5.094882575757576,0.737612127685547,0.136343503475189,-3.9657476228714
5.095488636363636,0.46457990112304703,0.169873776912689,-3.72385065021515
5.096094696969697,0.490925115966797,-0.0337028832435608,-3.96814264240265
5.096700757575758,0.416679510498047,0.23932934331893901,-4.00646295490265
5.097306818181818,0.330458807373047,0.34950024175643896,-4.0136480134964
5.097912878787879,0.6849216979980469,0.0597028784751892,-3.87234186115265
5.098518939393939,0.5460105651855469,0.0860480933189392,-3.7765410799026498
5.099125,0.481345037841797,0.373450437068939,-3.8412066072464
5.099731060606061,0.560380682373047,0.00940746831893921,-4.00167291584015
5.100337121212121,0.7232420104980469,-0.0384929223060608,-3.88192193927765
5.100943181818183,0.397519354248047,0.24411938238143902,-4.0854985994339
5.101549242424242,0.380754217529297,0.0165925269126892,-4.1717193025589
5.102155303030303,0.426259588623047,0.0333576636314392,-4.0136480134964
5.102761363636365,0.361594061279297,0.229749265193939,-4.0208330720901495
5.103367424242425,0.46218488159179705,0.0860480933189392,-3.96814264240265
5.103973484848485,0.653786444091797,0.0237775855064392,-3.9226372713088997
5.104579545454545,0.5005051940917971,0.0764680151939392,-3.95377252521515
5.105185606060607,0.490925115966797,0.131553464412689,-4.09268365802765
5.105791666666668,0.5651707214355469,0.026172605037689197,-4.0543633455276495
5.106397727272727,0.6849216979980469,-0.028912844181060802,-3.8076763338089
5.107003787878789,0.740007147216797,0.24890942144393902,-3.8076763338089
5.10760984848485,0.428654608154297,0.105208249568939,-4.0567583650589
5.10821590909091,0.572355780029297,0.0644929175376892,-3.4244732088089
5.1088219696969706,0.7256370300292969,0.105208249568939,-3.0652202791214
5.109428030303031,0.598700994873047,-0.08160327386856081,-3.36459772052765
5.1100340909090916,0.469369940185547,0.315969968318939,-3.84839166584015
5.1106401515151525,0.6034910339355469,0.0357526831626892,-4.14058404865265
5.1112462121212126,0.421469549560547,0.0573078589439392,-3.8986870759964
5.1118522727272735,0.431049627685547,0.0764680151939392,-4.07352350177765
5.1124583333333335,0.696896795654297,0.0525178198814392,-4.1573491853714
5.1130643939393945,0.526850408935547,0.227354245662689,-4.1573491853714
5.113670454545455,0.390334295654297,0.141133542537689,-4.0663384431839
5.1142765151515155,0.507690252685547,0.107603269100189,-3.88192193927765
5.114882575757576,0.680131658935547,0.040542722225189204,-3.9394024080276497
5.1154886363636365,0.629836248779297,0.0525178198814392,-4.0471782869339
5.116094696969697,0.608281072998047,-0.0121477074623108,-3.9849077791214
5.116700757575758,0.613071112060547,0.270464597225189,-3.9130571931838998
5.117306818181818,0.653786444091797,0.169873776912689,-3.8028862947463997
5.117912878787879,0.431049627685547,-0.112738527774811,-3.8555767244339
5.118518939393939,0.6058860534667969,0.0118024878501892,-4.09268365802765
5.119125,0.6010960144042969,0.0525178198814392,-3.88671197834015
5.119731060606061,0.569960760498047,0.0118024878501892,-3.99209283771515
5.120337121212121,0.716056951904297,0.220169187068939,-3.7501958650589
5.120943181818182,0.481345037841797,-0.10315844964981101,-3.99209283771515
5.121549242424242,0.768747381591797,-0.0648381371498108,-4.1669292634964
5.122155303030303,0.778327459716797,0.373450437068939,-3.9370073884964
5.122761363636364,0.416679510498047,0.0549128394126892,-4.195669497871401
5.123367424242424,0.44541974487304703,0.102813230037689,-4.1214238924026505
5.123973484848485,0.47176495971679705,0.169873776912689,-3.8220464509964
5.124579545454545,0.419074530029297,-0.048073000431060796,-3.9561675447463998
5.125185606060606,0.44302472534179704,0.0788630347251892,-4.0902886384964
5.125791666666667,0.6442063659667969,0.265674558162689,-3.79570123615265
5.126397727272727,0.47415997924804704,0.0477277808189392,-3.8843169588089
5.127003787878788,0.39512433471679703,-0.167823976993561,-4.2076445955276505
5.127609848484849,0.572355780029297,0.0022224097251892097,-3.9753277009964
5.128215909090909,0.361594061279297,0.0118024878501892,-3.7837261384964
5.12882196969697,0.435839666748047,0.0165925269126892,-3.9394024080276497
5.12942803030303,0.555590643310547,0.0357526831626892,-3.8459966463089
5.130034090909091,0.555590643310547,-0.045677980899810795,-4.0208330720901495
5.130640151515151,0.555590643310547,-0.0576530785560608,-4.262730044746401
5.131246212121212,0.486135076904297,-0.0265178246498108,-3.9849077791214
5.131852272727273,0.534035467529297,-0.0121477074623108,-3.9609575838089
5.132458333333333,0.557985662841797,0.236934323787689,-4.07831354084015
5.133064393939394,0.589120916748047,0.124368405818939,-3.8507866853714
5.133670454545455,0.46457990112304703,0.0333576636314392,-3.9609575838089
5.134276515151515,0.296928533935547,0.18424389410018902,-4.0328081697464
5.134882575757576,0.572355780029297,0.181848874568939,-3.9729326814651498
5.135488636363636,0.45260480346679705,0.160293698787689,-3.87713190021515
5.136094696969697,0.591515936279297,-0.10555346918106101,-3.82923150959015
5.136700757575758,0.680131658935547,-0.0959733910560608,-3.9753277009964
5.137306818181818,0.33285382690429705,0.17945385503768901,-4.04478326740265
5.137912878787879,0.28495343627929703,0.253699460506439,-4.08789361896515
5.138518939393939,0.45499982299804703,0.0764680151939392,-4.183694400215151
5.139125,0.476554998779297,0.0620978980064392,-3.69032037677765
5.139731060606061,0.529245428466797,0.162688718318939,-3.4939287752151498
5.140337121212121,0.696896795654297,0.026172605037689197,-4.04478326740265
5.140943181818182,0.505295233154297,0.0860480933189392,-4.01125299396515
5.141549242424242,0.5460105651855469,0.14831860113143902,-3.7501958650589
5.142155303030303,0.380754217529297,-0.0528630394935608,-3.94898248615265
5.142761363636364,0.399914373779297,0.0381477026939392,-4.10705377521515
5.143367424242424,0.5460105651855469,0.0213825659751892,-3.9082671541214
5.143973484848486,0.49332013549804704,0.0668879370689392,-3.7070855134964
5.144579545454546,0.33524884643554703,0.14831860113143902,-3.93461236896515
5.145185606060606,0.46457990112304703,0.160293698787689,-3.82444147052765
5.145791666666668,0.651391424560547,0.00461742925643921,-3.8651568025589
5.146397727272728,0.481345037841797,0.0213825659751892,-3.8699468416214
5.147003787878789,0.572355780029297,0.124368405818939,-4.0136480134964
5.147609848484848,0.428654608154297,0.145923581600189,-3.9394024080276497
5.14821590909091,0.481345037841797,0.174663815975189,-3.7070855134964
5.148821969696971,0.43344464721679704,-0.00496264886856079,-3.93461236896515
5.149428030303031,0.6034910339355469,0.0501228003501892,-3.9274273103714
5.150034090909092,0.740007147216797,0.13873852300643902,-3.9082671541214
5.150640151515152,0.7040818542480469,0.112393308162689,-3.8316265291214
5.151246212121213,0.716056951904297,-0.129503664493561,-3.7501958650589
5.1518522727272735,0.44541974487304703,-0.009752687931060789,-3.90587213459015
5.152458333333334,0.435839666748047,0.236934323787689,-4.15974420490265
5.1530643939393945,0.45260480346679705,0.124368405818939,-3.9178472322464
5.1536704545454555,0.5220603698730469,0.155503659725189,-3.86755182209015
5.1542765151515155,0.5436155456542969,-0.0576530785560608,-3.7789360994339
5.1548825757575765,0.495715155029297,-0.139083742618561,-3.96335260334015
5.1554886363636365,0.653786444091797,0.028567624568939198,-4.176509341621401
5.1560946969696975,0.751982244873047,0.165083737850189,-3.8172564119339
5.156700757575758,0.5843308776855469,0.196218991756439,-3.9274273103714
5.1573068181818185,0.457394842529297,-0.019332766056060803,-4.0663384431839
5.157912878787879,0.586725897216797,0.0620978980064392,-4.04957330646515
5.1585189393939395,0.567565740966797,0.15310864019393902,-3.84839166584015
5.159125,0.6609715026855469,0.33752514410018897,-3.8603667634964
5.159731060606061,0.426259588623047,0.234539304256439,-4.0088579744339
5.160337121212121,0.347223944091797,0.045332761287689205,-3.8651568025589
5.160943181818182,0.490925115966797,0.0501228003501892,-3.9274273103714
5.161549242424242,0.440629705810547,0.160293698787689,-3.9849077791214
5.162155303030303,0.577145819091797,0.165083737850189,-4.01604303302765
5.162761363636364,0.517270330810547,0.0357526831626892,-3.9849077791214
5.163367424242424,0.5244553894042969,-0.07920825433731081,-3.91545221271515
5.163973484848485,0.598700994873047,0.0788630347251892,-3.9394024080276497
5.164579545454545,0.526850408935547,0.141133542537689,-3.91066217365265
5.165185606060606,0.598700994873047,0.121973386287689,-3.58972955646515
5.165791666666667,0.617861151123047,0.00940746831893921,-3.7765410799026498
5.166397727272727,0.43344464721679704,-0.14147876214981098,-4.01125299396515
5.167003787878788,0.5460105651855469,0.0525178198814392,-4.202854556465151
5.167609848484848,0.711266912841797,0.102813230037689,-4.162139224433901
5.168215909090909,0.598700994873047,0.19382397222518902,-3.8843169588089
5.16882196969697,0.375964178466797,0.0740729956626892,-4.2076445955276505
5.16942803030303,0.426259588623047,0.177058835506439,-3.9992778963088997
5.170034090909091,0.677736639404297,0.107603269100189,-3.9178472322464
5.170640151515152,0.608281072998047,0.09802319097518919,-3.9825127595901497
5.171246212121212,0.5651707214355469,0.12915844488143902,-3.6879253572464
5.171852272727273,0.41188947143554705,0.0860480933189392,-3.7885161775589
5.172458333333333,0.368779119873047,0.181848874568939,-3.83402154865265
5.173064393939394,0.466974920654297,0.0022224097251892097,-3.7549859041214
5.173670454545455,0.466974920654297,-0.0576530785560608,-3.7765410799026498
5.174276515151515,0.648996405029297,0.040542722225189204,-3.8747368806839
5.174882575757576,0.6849216979980469,0.392610593318939,-3.7837261384964
5.175488636363636,0.399914373779297,0.311179929256439,-4.0375982088089
5.176094696969697,0.42386456909179704,-0.00496264886856079,-3.93461236896515
5.176700757575758,0.5436155456542969,-0.0624431176185608,-3.72385065021515
5.177306818181818,0.5412205261230469,0.145923581600189,-4.15974420490265
5.177912878787879,0.610676092529297,0.00461742925643921,-3.9417974275589
5.178518939393939,0.653786444091797,-0.0360979027748108,-3.76217096271515
5.179125,0.613071112060547,-0.0648381371498108,-4.09747369709015
5.179731060606061,0.538825506591797,-0.00017260980606079098,-4.1190288728714
5.180337121212121,0.658576483154297,0.0357526831626892,-3.9370073884964
5.180943181818182,0.47415997924804704,-0.17979907464981099,-4.02562311115265
5.181549242424242,0.5436155456542969,0.045332761287689205,-4.0663384431839
5.182155303030303,0.553195623779297,0.09562817144393919,-3.9705376619339
5.182761363636365,0.409494451904297,0.232144284725189,-3.95856256427765
5.183367424242424,0.40470441284179703,-0.0337028832435608,-4.00167291584015
5.183973484848485,0.555590643310547,0.045332761287689205,-4.04957330646515
5.184579545454545,0.6010960144042969,0.232144284725189,-3.7693560213089
5.185185606060607,0.718451971435547,0.205799069881439,-3.84839166584015
5.185791666666667,0.548405584716797,0.0860480933189392,-3.99688287677765
5.186397727272727,0.49332013549804704,0.0908381323814392,-3.80528131427765
5.187003787878789,0.632231268310547,0.0884431128501892,-3.9370073884964
5.187609848484849,0.490925115966797,-0.0576530785560608,-3.9609575838089
5.188215909090909,0.598700994873047,0.0189875464439392,-4.123818911933901
5.188821969696971,0.277768377685547,0.126763425350189,-4.3058403963089
5.189428030303031,0.368779119873047,0.0764680151939392,-3.88671197834015
5.190034090909092,0.510085272216797,0.155503659725189,-3.9465874666214
5.190640151515153,0.450209783935547,0.191428952693939,-4.0208330720901495
5.191246212121213,0.35440900268554704,-0.0600480980873108,-3.6999004549026497
5.191852272727274,0.419074530029297,0.15789867925643902,-3.96335260334015
5.192458333333334,0.876523260498047,0.00940746831893921,-3.8962920564651498
5.193064393939395,0.692106756591797,0.00701244878768921,-3.9417974275589
5.1936704545454555,0.646601385498047,0.315969968318939,-3.9657476228714
5.194276515151516,0.39272931518554705,0.09323315191268919,-3.8795269197463997
5.1948825757575765,0.371174139404297,0.12915844488143902,-4.0854985994339
5.195488636363637,0.510085272216797,0.263279538631439,-3.8124663728714
5.1960946969696975,0.438234686279297,-0.0528630394935608,-3.8172564119339
5.1967007575757584,0.749587225341797,0.0836530737876892,-3.9130571931838998
5.1973068181818185,0.5843308776855469,0.102813230037689,-3.9609575838089
5.197912878787879,0.26339826049804704,0.124368405818939,-3.45560846271515
5.1985189393939395,0.35440900268554704,0.131553464412689,-3.83402154865265
5.199125,0.598700994873047,-0.10076343011856101,-4.2531499666214
5.199731060606061,0.536430487060547,0.160293698787689,-3.7645659822464
5.200337121212121,0.44302472534179704,0.0860480933189392,-4.0184380525589
5.200943181818182,0.495715155029297,-0.045677980899810795,-3.95856256427765
5.201549242424242,0.517270330810547,0.030962644100189198,-3.8076763338089
5.202155303030303,0.512480291748047,0.14831860113143902,-3.75259088459015
5.202761363636364,0.481345037841797,0.0692829566001892,-3.82444147052765
5.203367424242424,0.320878729248047,-0.0337028832435608,-3.9801177400589
5.203973484848485,0.637021307373047,0.09323315191268919,-4.2004595369339
5.204579545454545,0.718451971435547,0.0740729956626892,-3.9944878572464
5.205185606060606,0.5005051940917971,0.121973386287689,-3.70469049396515
5.205791666666667,0.490925115966797,0.191428952693939,-3.8459966463089
5.206397727272727,0.440629705810547,0.256094480037689,-3.72864068927765
5.207003787878788,0.5651707214355469,-0.0265178246498108,-3.67116022052765
5.207609848484848,0.399914373779297,0.0189875464439392,-4.0136480134964
5.208215909090909,0.567565740966797,0.136343503475189,-4.109448794746401
5.20882196969697,0.694501776123047,0.102813230037689,-3.8316265291214
5.20942803030303,0.586725897216797,0.272859616756439,-4.0543633455276495
5.210034090909091,0.7855125183105469,0.395005612850189,-3.8795269197463997
5.210640151515152,0.637021307373047,0.131553464412689,-3.74780084552765
5.211246212121212,0.45260480346679705,0.12915844488143902,-4.1190288728714
5.211852272727273,0.749587225341797,0.344710202693939,-3.8795269197463997
5.212458333333333,0.706476873779297,0.0381477026939392,-3.8962920564651498
5.213064393939394,0.47415997924804704,0.00940746831893921,-3.80528131427765
5.213670454545455,0.577145819091797,-0.08399829339981081,-3.81007135334015
5.214276515151515,0.519665350341797,-0.0887883324623108,-3.98730279865265
5.214882575757576,0.648996405029297,0.028567624568939198,-4.09268365802765
5.215488636363636,0.706476873779297,0.028567624568939198,-3.95377252521515
5.216094696969697,0.337643865966797,0.117183347225189,-3.70948053302765
5.216700757575758,0.476554998779297,-0.043282961368560795,-4.102263736152651
5.217306818181818,0.620256170654297,-0.0576530785560608,-4.1046587556839
5.217912878787879,0.45499982299804703,0.09802319097518919,-4.0902886384964
5.218518939393939,0.476554998779297,0.0836530737876892,-4.0328081697464
5.219125,0.517270330810547,-0.0313078637123108,-3.82444147052765
5.219731060606061,0.478950018310547,0.0788630347251892,-3.9896978181839
5.220337121212121,0.550800604248047,0.186638913631439,-3.81007135334015
5.220943181818182,0.5244553894042969,0.251304440975189,-4.0998687166214
5.221549242424242,0.47415997924804704,0.205799069881439,-3.9274273103714
5.222155303030303,0.6226511901855469,0.030962644100189198,-4.01125299396515
5.222761363636364,0.5436155456542969,0.105208249568939,-4.0663384431839
5.223367424242424,0.6442063659667969,0.17945385503768901,-3.75738092365265
5.223973484848485,0.371174139404297,0.311179929256439,-3.8986870759964
5.224579545454545,0.419074530029297,0.00701244878768921,-4.01604303302765
5.225185606060606,0.716056951904297,0.00701244878768921,-4.04957330646515
5.225791666666668,0.481345037841797,0.14352856206893902,-3.8459966463089
5.226397727272727,0.6058860534667969,0.131553464412689,-3.9274273103714
5.227003787878788,0.507690252685547,0.28722973394393897,-3.8627617830276497
5.22760984848485,0.574750799560547,0.124368405818939,-4.142979068183901
5.22821590909091,0.610676092529297,0.0668879370689392,-4.109448794746401
5.22882196969697,0.5651707214355469,-0.043282961368560795,-4.17890436115265
5.22942803030303,0.6058860534667969,-0.0145427269935608,-3.7501958650589
5.230034090909092,0.39512433471679703,-0.0337028832435608,-3.43165826740265
5.230640151515153,0.529245428466797,0.0118024878501892,-3.99688287677765
5.231246212121212,0.553195623779297,-0.08639331293106081,-3.90587213459015
5.231852272727274,0.569960760498047,0.09562817144393919,-4.0471782869339
5.232458333333334,0.6609715026855469,0.0860480933189392,-4.2579400056839
5.233064393939395,0.48374005737304704,-0.009752687931060789,-3.8651568025589
5.2336704545454555,0.318483709716797,0.201009030818939,-3.9274273103714
5.234276515151516,0.36398908081054704,0.0573078589439392,-4.0208330720901495
5.2348825757575765,0.5843308776855469,0.167478757381439,-3.96814264240265
5.235488636363637,0.6609715026855469,-0.009752687931060789,-4.0615484041214
5.2360946969696975,0.426259588623047,0.030962644100189198,-3.7933062166213998
5.2367007575757585,0.517270330810547,-0.043282961368560795,-3.6927153963089
5.2373068181818185,0.548405584716797,-0.0265178246498108,-3.9082671541214
5.2379128787878795,0.572355780029297,0.18903393316268902,-3.9753277009964
5.2385189393939395,0.419074530029297,-0.06962817621231081,-3.8531817049026498
5.2391250000000005,0.6034910339355469,0.00461742925643921,-4.0040679353714
5.239731060606061,0.7615623229980469,0.0908381323814392,-3.76696100177765
5.2403371212121215,0.517270330810547,-0.06962817621231081,-3.8603667634964
5.240943181818182,0.627441229248047,-0.07681323480606081,-4.0208330720901495
5.2415492424242425,0.7232420104980469,0.0860480933189392,-4.1477691072464005
5.242155303030303,0.534035467529297,0.181848874568939,-3.88192193927765
5.242761363636364,0.399914373779297,-0.019332766056060803,-3.81486139240265
5.243367424242424,0.36398908081054704,-0.131898684024811,-4.0543633455276495
5.243973484848485,0.5244553894042969,0.09323315191268919,-4.0711284822464
5.244579545454545,0.48374005737304704,0.0165925269126892,-4.0807085603713995
5.245185606060606,0.639416326904297,-0.0911833519935608,-3.74780084552765
5.245791666666667,0.749587225341797,0.28004467535018895,-4.03999322834015
5.246397727272727,0.42386456909179704,0.0836530737876892,-3.7166655916213998
5.247003787878788,0.32566876831054703,-0.112738527774811,-3.6567901033401498
5.247609848484849,0.41428449096679704,0.169873776912689,-3.9226372713088997
5.248215909090909,0.387939276123047,0.045332761287689205,-3.9896978181839
5.24882196969697,0.519665350341797,0.174663815975189,-3.86755182209015
5.24942803030303,0.591515936279297,0.210589108943939,-3.7022954744339
5.250034090909091,0.495715155029297,0.117183347225189,-3.76696100177765
5.250640151515151,0.481345037841797,0.181848874568939,-3.79091119709015
5.251246212121212,0.42386456909179704,0.18424389410018902,-3.87713190021515
5.251852272727273,0.6442063659667969,0.181848874568939,-3.8412066072464
5.252458333333333,0.48374005737304704,0.0597028784751892,-3.9561675447463998
5.253064393939394,0.5819358581542969,0.0525178198814392,-4.22680475177765
5.253670454545455,0.593910955810547,0.215379148006439,-3.92982232990265
5.254276515151515,0.598700994873047,0.0022224097251892097,-3.8172564119339
5.254882575757576,0.572355780029297,0.0668879370689392,-3.88192193927765
5.255488636363636,0.531640447998047,-0.00017260980606079098,-3.7597759431838997
5.256094696969697,0.538825506591797,0.0357526831626892,-4.0471782869339
5.256700757575758,0.5460105651855469,0.172268796443939,-3.9513775056839
5.257306818181818,0.596305975341797,-0.06723315668106081,-3.8555767244339
5.257912878787879,0.47176495971679705,0.150713620662689,-3.9896978181839
5.258518939393939,0.28255841674804705,0.0477277808189392,-4.4974419588089
5.259125,0.375964178466797,0.186638913631439,-4.10705377521515
5.259731060606061,0.7016868347167969,0.102813230037689,-3.4484234041214
5.260337121212121,0.5244553894042969,-0.0121477074623108,-4.0208330720901495
5.260943181818182,0.347223944091797,0.270464597225189,-4.0040679353714
5.261549242424242,0.6633665222167969,0.32794506597518897,-3.64241998615265
5.262155303030303,0.617861151123047,0.186638913631439,-3.6496050447464
5.262761363636364,0.567565740966797,0.102813230037689,-3.85797174396515
5.263367424242424,0.637021307373047,0.136343503475189,-3.75259088459015
5.263973484848485,0.46457990112304703,-0.0217277855873108,-3.76696100177765
5.264579545454545,0.308903631591797,0.0644929175376892,-4.10705377521515
5.265185606060606,0.517270330810547,0.12915844488143902,-3.91066217365265
5.265791666666667,0.593910955810547,0.174663815975189,-3.7933062166213998
5.266397727272727,0.47415997924804704,0.18903393316268902,-3.82923150959015
5.267003787878789,0.45260480346679705,0.042937741756439204,-3.98730279865265
5.267609848484848,0.5005051940917971,0.028567624568939198,-3.7765410799026498
5.268215909090909,0.6034910339355469,0.0165925269126892,-3.92024225177765
5.268821969696971,0.440629705810547,0.0477277808189392,-4.195669497871401
5.269428030303031,0.428654608154297,0.0836530737876892,-3.87234186115265
5.270034090909091,0.347223944091797,0.227354245662689,-3.8651568025589
5.270640151515151,0.469369940185547,0.0501228003501892,-3.8795269197463997
5.271246212121213,0.5220603698730469,-0.0408879418373108,-3.8699468416214
5.271852272727274,0.440629705810547,-0.0145427269935608,-3.9226372713088997
5.272458333333333,0.680131658935547,0.15789867925643902,-4.0807085603713995
5.273064393939395,0.6418113464355469,0.201009030818939,-3.8962920564651498
5.273670454545456,0.46218488159179705,0.0118024878501892,-3.8172564119339
5.274276515151516,0.5412205261230469,0.0022224097251892097,-3.78133111896515
5.274882575757577,0.531640447998047,0.112393308162689,-3.7933062166213998
5.275488636363637,0.34243390502929705,0.0836530737876892,-3.98730279865265
5.276094696969698,0.550800604248047,-0.0217277855873108,-3.7430108064651497
5.2767007575757585,0.466974920654297,0.09562817144393919,-3.94419244709015
5.277306818181819,0.512480291748047,0.141133542537689,-4.0232280916214
5.2779128787878795,0.560380682373047,0.030962644100189198,-3.7980962556839
5.27851893939394,0.529245428466797,0.253699460506439,-3.63283990802765
5.2791250000000005,0.574750799560547,0.0788630347251892,-3.7358257478714
5.2797310606060615,0.589120916748047,-0.019332766056060803,-3.9944878572464
5.2803371212121215,0.670551580810547,0.14831860113143902,-3.92982232990265
5.2809431818181825,0.694501776123047,-0.0648381371498108,-3.9394024080276497
5.2815492424242425,0.677736639404297,-0.122318605899811,-3.97772272052765
5.2821553030303035,0.620256170654297,0.0525178198814392,-4.176509341621401
5.282761363636364,0.773537420654297,0.227354245662689,-4.0208330720901495
5.2833674242424244,0.47415997924804704,0.165083737850189,-4.05915338459015
5.283973484848485,0.550800604248047,0.0812580542564392,-4.0998687166214
5.2845795454545454,0.397519354248047,-0.009752687931060789,-4.01604303302765
5.285185606060606,0.390334295654297,-0.10555346918106101,-4.08310357990265
5.285791666666667,0.5651707214355469,0.028567624568939198,-3.9609575838089
5.286397727272727,0.593910955810547,-0.07441821527481081,-4.04478326740265
5.287003787878788,0.5651707214355469,0.0525178198814392,-3.87234186115265
5.287609848484848,0.526850408935547,0.0357526831626892,-3.94419244709015
5.288215909090909,0.699291815185547,-0.0313078637123108,-3.5801494783401497
5.28882196969697,0.593910955810547,0.21777416753768902,-3.9274273103714
5.28942803030303,0.711266912841797,0.0812580542564392,-3.77175104084015
5.290034090909091,0.505295233154297,-0.019332766056060803,-3.7789360994339
5.290640151515152,0.45260480346679705,-0.0408879418373108,-4.0328081697464
5.291246212121212,0.637021307373047,0.00701244878768921,-3.8938970369339
5.291852272727273,0.5005051940917971,0.26806957769393897,-4.236384829902651
5.292458333333333,0.706476873779297,0.160293698787689,-3.90108209552765
5.293064393939394,0.6010960144042969,-0.17500903558731098,-3.9034771150589
5.293670454545455,0.375964178466797,0.210589108943939,-3.92503229084015
5.294276515151515,0.529245428466797,0.12915844488143902,-4.00167291584015
5.294882575757576,0.49332013549804704,-0.019332766056060803,-3.94898248615265
5.295488636363636,0.7232420104980469,0.12915844488143902,-4.0184380525589
5.296094696969697,0.658576483154297,0.177058835506439,-3.9130571931838998
5.296700757575758,0.37356915893554704,0.201009030818939,-3.9849077791214
5.297306818181818,0.589120916748047,-0.10076343011856101,-3.8795269197463997
5.297912878787879,0.5436155456542969,-0.0313078637123108,-3.9729326814651498
5.298518939393939,0.47176495971679705,0.181848874568939,-4.202854556465151
5.299125,0.749587225341797,0.026172605037689197,-4.03520318927765
5.299731060606061,0.596305975341797,-0.0145427269935608,-3.82444147052765
5.300337121212121,0.481345037841797,0.0118024878501892,-4.0136480134964
5.300943181818182,0.5244553894042969,0.040542722225189204,-4.08789361896515
5.301549242424242,0.5412205261230469,-0.06962817621231081,-3.9130571931838998
5.302155303030303,0.517270330810547,-0.028912844181060802,-3.8507866853714
5.302761363636364,0.45499982299804703,0.13394848394393902,-3.9729326814651498
5.303367424242424,0.646601385498047,0.227354245662689,-4.0711284822464
5.303973484848485,0.550800604248047,0.119578366756439,-3.7334307283401498
5.304579545454545,0.5244553894042969,0.15789867925643902,-3.91545221271515
5.305185606060606,0.507690252685547,0.24411938238143902,-3.91545221271515
5.305791666666667,0.529245428466797,0.0860480933189392,-3.8938970369339
5.306397727272727,0.548405584716797,0.227354245662689,-4.0759185213089
5.307003787878788,0.536430487060547,0.253699460506439,-3.98730279865265
5.307609848484848,0.466974920654297,0.0884431128501892,-3.7789360994339
5.308215909090909,0.44541974487304703,-0.08160327386856081,-3.66158014240265
5.30882196969697,0.5843308776855469,-0.0552580590248108,-4.03520318927765
5.30942803030303,0.421469549560547,0.107603269100189,-3.9705376619339
5.310034090909092,0.476554998779297,0.040542722225189204,-3.9226372713088997
5.310640151515152,0.5412205261230469,0.131553464412689,-3.87713190021515
5.311246212121212,0.40470441284179703,0.241724362850189,-3.8412066072464
5.311852272727274,0.37356915893554704,0.28962475347518896,-3.81007135334015
5.312458333333334,0.555590643310547,0.177058835506439,-3.82923150959015
5.313064393939394,0.6250462097167969,-0.117528566837311,-4.176509341621401
5.313670454545456,0.495715155029297,0.0716779761314392,-4.08789361896515
5.314276515151516,0.5819358581542969,0.100418210506439,-3.91066217365265
5.314882575757577,0.421469549560547,0.263279538631439,-4.1214238924026505
5.315488636363636,0.407099432373047,0.19861401128768902,-3.97772272052765
5.316094696969698,0.692106756591797,-0.119923586368561,-3.87234186115265
5.3167007575757586,0.828622869873047,0.0836530737876892,-4.21722467365265
5.317306818181819,0.359199041748047,0.0692829566001892,-3.9130571931838998
5.3179128787878795,0.620256170654297,0.126763425350189,-3.53224908771515
5.31851893939394,0.567565740966797,0.167478757381439,-3.44123834552765
5.3191250000000005,0.296928533935547,0.0836530737876892,-4.11184381427765
5.3197310606060615,0.7447971862792969,0.150713620662689,-3.64721002521515
5.3203371212121215,0.598700994873047,0.14831860113143902,-3.4915337556839
5.3209431818181825,0.481345037841797,0.205799069881439,-4.0375982088089
5.3215492424242425,0.550800604248047,0.21298412847518902,-3.8220464509964
5.3221553030303035,0.694501776123047,-0.119923586368561,-4.0136480134964
5.322761363636364,0.538825506591797,0.00461742925643921,-3.9513775056839
5.3233674242424245,0.519665350341797,0.145923581600189,-4.0280181306839
5.323973484848485,0.534035467529297,0.105208249568939,-3.88671197834015
5.3245795454545455,0.6058860534667969,0.0213825659751892,-3.70948053302765
5.325185606060606,0.567565740966797,-0.115133547306061,-3.63762994709015
5.325791666666667,0.35440900268554704,0.0118024878501892,-3.95856256427765
5.326397727272727,0.24902814331054698,0.028567624568939198,-4.1908794588089
5.327003787878788,0.457394842529297,0.253699460506439,-3.9322173494339
5.327609848484848,0.428654608154297,0.121973386287689,-3.9609575838089
5.328215909090909,0.517270330810547,-0.10555346918106101,-3.9753277009964
5.32882196969697,0.560380682373047,-0.00735766839981079,-4.01125299396515
5.32942803030303,0.5412205261230469,0.0860480933189392,-4.06394342365265
5.330034090909091,0.553195623779297,-0.0217277855873108,-4.03999322834015
5.330640151515152,0.534035467529297,0.0501228003501892,-3.75259088459015
5.331246212121212,0.651391424560547,0.114788327693939,-3.7214556306839
5.331852272727273,0.799882635498047,0.0501228003501892,-4.0136480134964
5.332458333333333,0.6633665222167969,0.0477277808189392,-3.8268364900589
5.333064393939394,0.459789862060547,0.172268796443939,-3.97772272052765
5.333670454545455,0.632231268310547,-0.0145427269935608,-3.9082671541214
5.334276515151515,0.593910955810547,0.102813230037689,-3.70469049396515
5.334882575757576,0.620256170654297,0.31836498785018896,-3.9226372713088997
5.335488636363636,0.44302472534179704,0.0573078589439392,-4.03520318927765
5.336094696969697,0.6657615417480469,0.191428952693939,-3.89150201740265
5.336700757575758,0.754377264404297,0.191428952693939,-3.78612115802765
5.337306818181818,0.476554998779297,0.256094480037689,-4.116633853340151
5.337912878787879,0.735217108154297,-0.0265178246498108,-3.82444147052765
5.338518939393939,0.5843308776855469,0.0189875464439392,-3.87713190021515
5.339125,0.569960760498047,0.114788327693939,-4.01125299396515
5.339731060606061,0.534035467529297,0.117183347225189,-4.109448794746401
5.340337121212121,0.5819358581542969,0.102813230037689,-4.1549541658401505
5.340943181818182,0.708871893310547,0.045332761287689205,-3.9896978181839
5.341549242424242,0.610676092529297,-0.019332766056060803,-3.91066217365265
5.342155303030303,0.47176495971679705,0.0022224097251892097,-3.8747368806839
5.342761363636364,0.6010960144042969,0.20340405035018902,-3.79570123615265
5.343367424242424,0.627441229248047,0.0118024878501892,-3.71427057209015
5.343973484848485,0.656181463623047,0.00701244878768921,-3.8962920564651498
5.344579545454545,0.6010960144042969,0.0525178198814392,-3.92024225177765
5.345185606060606,0.591515936279297,0.15789867925643902,-3.8555767244339
5.345791666666667,0.46218488159179705,0.14352856206893902,-3.81007135334015
5.346397727272727,0.538825506591797,0.040542722225189204,-3.8316265291214
5.347003787878788,0.6226511901855469,-0.048073000431060796,-3.71427057209015
5.347609848484849,0.45260480346679705,0.15789867925643902,-4.1333989900589
5.348215909090909,0.557985662841797,0.165083737850189,-4.23159479084015
5.34882196969697,0.256213201904297,0.0597028784751892,-4.2531499666214
5.34942803030303,0.5412205261230469,0.0189875464439392,-3.4723735994339
5.350034090909091,0.668156561279297,0.0908381323814392,-3.39333795490265
5.350640151515153,0.5005051940917971,0.234539304256439,-3.69511041584015
5.351246212121212,0.694501776123047,0.160293698787689,-3.76217096271515
5.351852272727273,0.735217108154297,0.040542722225189204,-3.9322173494339
5.352458333333333,0.502900213623047,0.28004467535018895,-3.6232598299026497
5.353064393939395,0.41188947143554705,0.0477277808189392,-3.96814264240265
5.353670454545455,0.371174139404297,-0.07681323480606081,-3.99209283771515
5.354276515151515,0.5436155456542969,0.155503659725189,-4.0998687166214
5.354882575757577,0.459789862060547,0.177058835506439,-4.0950786775589
5.355488636363637,0.40470441284179703,-0.0408879418373108,-3.92982232990265
5.356094696969698,0.5220603698730469,-0.0959733910560608,-4.24596490802765
5.356700757575759,0.39512433471679703,0.282439694881439,-4.1214238924026505
5.357306818181819,0.41188947143554705,0.0477277808189392,-3.8220464509964
5.35791287878788,0.42386456909179704,0.0597028784751892,-3.9226372713088997
5.35851893939394,0.47415997924804704,0.222564206600189,-3.7980962556839
5.359125000000001,0.589120916748047,0.0549128394126892,-3.9178472322464
5.3597310606060615,0.476554998779297,0.121973386287689,-4.0040679353714
5.360337121212122,0.495715155029297,0.042937741756439204,-3.81007135334015
5.3609431818181825,0.596305975341797,0.0525178198814392,-4.0232280916214
5.361549242424243,0.390334295654297,0.0477277808189392,-4.02562311115265
5.3621553030303035,0.495715155029297,-0.0384929223060608,-4.135794009590151
5.3627613636363645,0.675341619873047,0.0764680151939392,-4.262730044746401
5.3633674242424245,0.577145819091797,0.030962644100189198,-4.142979068183901
5.3639734848484855,0.7232420104980469,0.263279538631439,-3.9082671541214
5.3645795454545455,0.737612127685547,0.253699460506439,-3.52745904865265
5.3651856060606065,0.579540838623047,0.23932934331893901,-3.94419244709015
5.365791666666667,0.514875311279297,0.167478757381439,-4.188484439277651
5.3663977272727275,0.514875311279297,0.0118024878501892,-4.1573491853714
5.367003787878788,0.49332013549804704,0.265674558162689,-3.9417974275589
5.367609848484849,0.301718572998047,0.026172605037689197,-3.9753277009964
5.368215909090909,0.6250462097167969,0.0740729956626892,-4.01125299396515
5.36882196969697,0.598700994873047,0.18903393316268902,-3.8172564119339
5.36942803030303,0.42386456909179704,0.100418210506439,-3.9370073884964
5.370034090909091,0.495715155029297,0.205799069881439,-4.0807085603713995
5.370640151515151,0.596305975341797,0.121973386287689,-3.87234186115265
5.371246212121212,0.459789862060547,0.17945385503768901,-3.85797174396515
5.371852272727273,0.459789862060547,0.0381477026939392,-4.0232280916214
5.372458333333333,0.766352362060547,0.042937741756439204,-4.0328081697464
5.373064393939394,0.5244553894042969,0.040542722225189204,-3.8124663728714
5.373670454545455,0.380754217529297,0.09802319097518919,-3.8412066072464
5.374276515151515,0.490925115966797,0.18424389410018902,-4.0471782869339
5.374882575757576,0.440629705810547,0.0477277808189392,-3.83881158771515
5.375488636363636,0.428654608154297,0.150713620662689,-4.1142388338089
5.376094696969697,0.560380682373047,0.284834714412689,-3.9274273103714
5.376700757575758,0.517270330810547,0.114788327693939,-3.88671197834015
5.377306818181818,0.648996405029297,0.150713620662689,-4.07352350177765
5.377912878787879,0.435839666748047,0.09323315191268919,-3.6639751619339
5.378518939393939,0.397519354248047,0.0189875464439392,-4.0854985994339
5.379125,0.490925115966797,0.23932934331893901,-4.09268365802765
5.379731060606061,0.337643865966797,0.17945385503768901,-3.7166655916213998
5.380337121212121,0.6226511901855469,0.026172605037689197,-3.8364165681838998
5.380943181818182,0.5651707214355469,0.040542722225189204,-4.0375982088089
5.381549242424242,0.478950018310547,0.112393308162689,-4.0711284822464
5.382155303030303,0.538825506591797,0.107603269100189,-3.9130571931838998
5.382761363636364,0.531640447998047,0.109998288631439,-4.0998687166214
5.383367424242424,0.502900213623047,0.0644929175376892,-3.82444147052765
5.383973484848485,0.37356915893554704,-0.0408879418373108,-3.9896978181839
5.384579545454545,0.6657615417480469,-0.050468019962310796,-4.2052495759964
5.385185606060606,0.706476873779297,0.0118024878501892,-3.97772272052765
5.385791666666667,0.486135076904297,0.162688718318939,-3.9082671541214
5.386397727272727,0.627441229248047,0.18424389410018902,-4.1142388338089
5.387003787878788,0.586725897216797,0.0237775855064392,-4.142979068183901
5.387609848484848,0.419074530029297,0.25848949956893896,-3.92024225177765
5.388215909090909,0.512480291748047,0.167478757381439,-3.7885161775589
5.38882196969697,0.507690252685547,0.0381477026939392,-3.9226372713088997
5.38942803030303,0.476554998779297,0.191428952693939,-4.0136480134964
5.390034090909091,0.677736639404297,0.222564206600189,-3.80528131427765
5.390640151515151,0.5843308776855469,-0.00256762933731079,-3.9561675447463998
5.391246212121212,0.43344464721679704,-0.043282961368560795,-3.8531817049026498
5.391852272727274,0.502900213623047,0.18903393316268902,-3.95856256427765
5.392458333333333,0.6010960144042969,-0.0265178246498108,-3.97772272052765
5.393064393939394,0.512480291748047,-0.0265178246498108,-4.0543633455276495
5.393670454545456,0.459789862060547,0.145923581600189,-4.0711284822464
5.394276515151516,0.39272931518554705,0.232144284725189,-3.8220464509964
5.394882575757576,0.277768377685547,0.272859616756439,-3.9561675447463998
5.395488636363636,0.617861151123047,0.109998288631439,-3.91066217365265
5.396094696969698,0.478950018310547,-0.00256762933731079,-4.0328081697464
5.396700757575759,0.33524884643554703,0.0860480933189392,-3.9394024080276497
5.397306818181818,0.5244553894042969,0.0237775855064392,-3.87713190021515
5.39791287878788,0.498110174560547,0.15789867925643902,-3.98730279865265
5.39851893939394,0.378359197998047,0.17945385503768901,-3.8555767244339
5.399125000000001,0.653786444091797,0.00461742925643921,-3.96814264240265
5.399731060606062,0.728032049560547,-0.0241228051185608,-3.80049127521515
5.400337121212122,0.507690252685547,0.155503659725189,-3.8124663728714
5.400943181818183,0.6226511901855469,0.112393308162689,-4.06394342365265
5.401549242424243,0.531640447998047,0.026172605037689197,-3.9729326814651498
5.402155303030304,0.6609715026855469,0.265674558162689,-3.81007135334015
5.4027613636363645,0.608281072998047,0.14831860113143902,-3.8747368806839
5.4033674242424246,0.38314923706054704,0.0812580542564392,-3.97772272052765
5.4039734848484855,0.694501776123047,0.09323315191268919,-4.09747369709015
5.4045795454545456,0.47176495971679705,0.222564206600189,-3.9729326814651498
5.4051856060606065,0.428654608154297,-0.0337028832435608,-3.9705376619339
5.405791666666667,0.514875311279297,0.12915844488143902,-4.0040679353714
5.4063977272727275,0.435839666748047,0.040542722225189204,-3.80049127521515
5.407003787878788,0.29453351440429704,-0.08160327386856081,-3.78133111896515
5.4076098484848485,0.308903631591797,0.102813230037689,-4.142979068183901
5.408215909090909,0.699291815185547,-0.17021899652481098,-4.1908794588089
5.40882196969697,0.687316717529297,0.241724362850189,-3.47955865802765
5.40942803030303,0.672946600341797,0.14352856206893902,-3.36459772052765
5.410034090909091,0.613071112060547,0.0644929175376892,-3.6591851228714
5.410640151515152,0.481345037841797,0.0620978980064392,-3.7980962556839
5.411246212121212,0.569960760498047,-0.0265178246498108,-3.80528131427765
5.411852272727273,0.5436155456542969,0.224959226131439,-3.9465874666214
5.412458333333333,0.5843308776855469,0.256094480037689,-3.9178472322464
5.413064393939394,0.672946600341797,0.112393308162689,-3.85797174396515
5.413670454545455,0.44302472534179704,-0.028912844181060802,-3.92024225177765
5.414276515151515,0.46218488159179705,0.112393308162689,-4.0375982088089
5.414882575757576,0.41428449096679704,0.186638913631439,-4.0711284822464
5.415488636363636,0.5843308776855469,0.0573078589439392,-3.9801177400589
5.416094696969697,0.6609715026855469,-0.07202319574356081,-3.9417974275589
5.416700757575758,0.5412205261230469,0.0381477026939392,-4.03520318927765
5.417306818181818,0.46457990112304703,-0.0241228051185608,-4.183694400215151
5.417912878787879,0.708871893310547,-0.08399829339981081,-4.1381890291214
5.418518939393939,0.577145819091797,0.126763425350189,-3.90108209552765
5.419125,0.495715155029297,0.040542722225189204,-3.88192193927765
5.419731060606061,0.7208469909667969,0.246514401912689,-3.9944878572464
5.420337121212121,0.328063787841797,0.165083737850189,-3.7837261384964
5.420943181818182,0.320878729248047,0.09562817144393919,-3.85797174396515
5.421549242424242,0.577145819091797,0.09562817144393919,-3.9657476228714
5.422155303030303,0.608281072998047,0.0716779761314392,-3.9274273103714
5.422761363636364,0.47415997924804704,0.13394848394393902,-4.0663384431839
5.423367424242424,0.510085272216797,-0.00735766839981079,-3.8364165681838998
5.423973484848485,0.553195623779297,0.145923581600189,-3.96814264240265
5.424579545454545,0.44302472534179704,0.119578366756439,-3.89150201740265
5.425185606060606,0.495715155029297,-0.112738527774811,-3.7741460603714
5.425791666666667,0.7208469909667969,-0.0911833519935608,-3.9657476228714
5.426397727272727,0.5460105651855469,0.028567624568939198,-4.0040679353714
5.427003787878788,0.49332013549804704,0.174663815975189,-3.9322173494339
5.427609848484848,0.447814764404297,0.0525178198814392,-3.79091119709015
5.428215909090909,0.478950018310547,-0.0241228051185608,-3.7741460603714
5.42882196969697,0.629836248779297,0.040542722225189204,-3.95377252521515
5.42942803030303,0.538825506591797,0.167478757381439,-3.99209283771515
5.430034090909091,0.555590643310547,-0.0217277855873108,-4.102263736152651
5.430640151515152,0.45499982299804703,0.00461742925643921,-4.195669497871401
5.431246212121212,0.5460105651855469,-0.06962817621231081,-3.90587213459015
5.431852272727273,0.778327459716797,-0.110343508243561,-3.8986870759964
5.432458333333333,0.629836248779297,0.00701244878768921,-4.0280181306839
5.433064393939394,0.778327459716797,0.040542722225189204,-3.87234186115265
5.433670454545455,0.634626287841797,0.26806957769393897,-3.6639751619339
5.434276515151515,0.526850408935547,0.0908381323814392,-4.03041315021515
5.434882575757577,0.677736639404297,0.0644929175376892,-3.94898248615265
5.435488636363636,0.653786444091797,-0.07681323480606081,-4.01604303302765
5.436094696969697,0.6609715026855469,0.109998288631439,-3.9825127595901497
5.436700757575759,0.48374005737304704,0.380635495662689,-3.9274273103714
5.437306818181819,0.44302472534179704,0.330340085506439,-3.92024225177765
5.437912878787879,0.5627757019042969,0.126763425350189,-3.92503229084015
5.438518939393939,0.629836248779297,0.040542722225189204,-4.102263736152651
5.439125000000001,0.368779119873047,0.0644929175376892,-3.8124663728714
5.439731060606062,0.5005051940917971,0.0141975073814392,-3.4771636384963998
5.440337121212121,0.627441229248047,0.150713620662689,-3.76217096271515
5.440943181818183,0.46218488159179705,0.181848874568939,-4.0543633455276495
5.441549242424243,0.687316717529297,-0.019332766056060803,-3.93461236896515
5.442155303030304,0.476554998779297,-0.08639331293106081,-4.0615484041214
5.4427613636363645,0.507690252685547,0.0836530737876892,-3.8627617830276497
5.443367424242425,0.716056951904297,0.23932934331893901,-3.6687652009964
5.4439734848484855,0.220287908935547,0.100418210506439,-3.9705376619339
5.444579545454546,0.46457990112304703,-0.0648381371498108,-3.83402154865265
5.4451856060606065,0.639416326904297,-0.0576530785560608,-3.84839166584015
5.4457916666666675,0.476554998779297,0.196218991756439,-4.1333989900589
5.4463977272727275,0.498110174560547,0.21777416753768902,-4.03999322834015
5.4470037878787885,0.42386456909179704,-0.00017260980606079098,-3.93461236896515
5.4476098484848485,0.380754217529297,0.23932934331893901,-3.9944878572464
5.4482159090909095,0.572355780029297,0.0764680151939392,-3.8843169588089
5.44882196969697,0.431049627685547,0.109998288631439,-3.9370073884964
5.4494280303030305,0.44541974487304703,0.21298412847518902,-3.99209283771515
5.450034090909091,0.629836248779297,0.186638913631439,-3.9226372713088997
5.450640151515152,0.696896795654297,0.14831860113143902,-4.0136480134964
5.451246212121212,0.514875311279297,-0.0528630394935608,-3.9825127595901497
5.451852272727273,0.469369940185547,-0.08639331293106081,-4.01604303302765
5.452458333333333,0.35201398315429705,0.0381477026939392,-3.9274273103714
5.453064393939394,0.5460105651855469,0.145923581600189,-3.79570123615265
5.453670454545455,0.732822088623047,-0.0624431176185608,-3.9417974275589
5.454276515151515,0.42386456909179704,0.0357526831626892,-4.1333989900589
5.454882575757576,0.47415997924804704,0.205799069881439,-4.02562311115265
5.455488636363636,0.428654608154297,0.292019773006439,-4.01125299396515
5.456094696969697,0.426259588623047,-0.00496264886856079,-4.1214238924026505
5.456700757575758,0.531640447998047,-0.050468019962310796,-4.03520318927765
5.457306818181818,0.572355780029297,0.196218991756439,-3.91545221271515
5.457912878787879,0.613071112060547,0.253699460506439,-3.9178472322464
5.458518939393939,0.550800604248047,0.306389890193939,-3.9034771150589
5.459125,0.512480291748047,-0.0121477074623108,-3.83402154865265
5.459731060606061,0.40230939331054705,-0.045677980899810795,-3.94898248615265
5.460337121212121,0.488530096435547,0.114788327693939,-4.142979068183901
5.460943181818182,0.577145819091797,0.0836530737876892,-3.92982232990265
5.461549242424242,0.40230939331054705,0.14831860113143902,-3.8699468416214
5.462155303030303,0.6250462097167969,0.117183347225189,-4.0711284822464
5.462761363636364,0.713661932373047,0.0812580542564392,-3.8555767244339
5.463367424242424,0.699291815185547,0.275254636287689,-3.86755182209015
5.463973484848485,0.675341619873047,0.18903393316268902,-4.01604303302765
5.464579545454545,0.46218488159179705,0.21298412847518902,-3.7454058259964
5.465185606060606,0.517270330810547,0.220169187068939,-3.8986870759964
5.465791666666667,0.6849216979980469,-0.112738527774811,-3.9082671541214
5.466397727272727,0.627441229248047,-0.0337028832435608,-3.96814264240265
5.467003787878788,0.416679510498047,-0.131898684024811,-4.308235415840151
5.467609848484849,0.421469549560547,0.0573078589439392,-3.96335260334015
5.468215909090909,0.5651707214355469,-0.0145427269935608,-4.0519683259964
5.46882196969697,0.421469549560547,0.0022224097251892097,-4.21722467365265
5.46942803030303,0.6010960144042969,0.181848874568939,-3.2807720369338997
5.470034090909091,0.42386456909179704,0.181848874568939,-3.2759819978714
5.470640151515152,0.32566876831054703,0.19382397222518902,-4.0136480134964
5.471246212121212,0.447814764404297,0.09562817144393919,-4.2004595369339
5.471852272727273,0.615466131591797,0.174663815975189,-4.08310357990265
5.472458333333333,0.5819358581542969,0.0549128394126892,-3.8699468416214
5.473064393939394,0.617861151123047,-0.00017260980606079098,-3.94898248615265
5.473670454545454,0.457394842529297,0.102813230037689,-3.9944878572464
5.474276515151515,0.668156561279297,0.0549128394126892,-4.0854985994339
5.474882575757576,0.854968084716797,0.00940746831893921,-3.9465874666214
5.475488636363636,0.6825266784667969,0.107603269100189,-4.0543633455276495
5.476094696969698,0.550800604248047,0.14352856206893902,-4.09268365802765
5.476700757575758,0.366384100341797,-0.048073000431060796,-4.08789361896515
5.477306818181818,0.5005051940917971,-0.0983684105873108,-4.02562311115265
5.47791287878788,0.534035467529297,-0.0552580590248108,-3.91066217365265
5.47851893939394,0.639416326904297,0.0716779761314392,-3.9657476228714
5.479125,0.409494451904297,0.315969968318939,-3.79091119709015
5.479731060606062,0.46218488159179705,0.0836530737876892,-3.9657476228714
5.480337121212122,0.459789862060547,0.13873852300643902,-3.84839166584015
5.480943181818183,0.48374005737304704,0.325550046443939,-4.0519683259964
5.481549242424242,0.5244553894042969,-0.0600480980873108,-3.93461236896515
5.482155303030304,0.577145819091797,0.17945385503768901,-3.9705376619339
5.482761363636365,0.5651707214355469,0.332735105037689,-4.01604303302765
5.483367424242425,0.5843308776855469,-0.00735766839981079,-4.0519683259964
5.483973484848486,0.627441229248047,-0.06962817621231081,-4.21722467365265
5.484579545454546,0.40470441284179703,-0.0983684105873108,-4.0136480134964
5.485185606060607,0.555590643310547,0.0788630347251892,-4.2675200838089005
5.4857916666666675,0.589120916748047,0.0381477026939392,-3.9944878572464
